,id,block_id,trial_id,stimulus,response,reaction_time,timestamp,participant_id,d1,ado_type,corr_esp_trial
0,1,1,2,"[17, 67, 38, 48, 48, 62, 63, 49]",>,1295.0,2024-11-13 19:46:21.134983,1,4,default,
1,2,1,3,"[62, 17, 51, 62, 59, 44, 43, 30]",<,814.0,2024-11-13 19:46:26.911767,1,2,default,
2,3,1,4,"[76, 34, 40, 65, 61, 35, 39, 42]",<,279.0,2024-11-13 19:46:32.081075,1,4,default,
3,4,1,5,"[59, 56, 53, 39, 50, 58, 95, 62]",>,817.0,2024-11-13 19:46:37.833145,1,9,default,
4,5,1,6,"[24, 42, 55, 58, 54, 64, 20, 51]",>,592.0,2024-11-13 19:46:43.331625,1,2,default,
5,6,1,2,"[66, 25, 63, 73, 61, 58, 38, 64]",>,709.0,2024-11-13 19:47:37.080799,3,8,default,
6,7,1,3,"[28, 51, 61, 70, 32, 66, 65, 59]",>,986.0,2024-11-13 19:47:43.022911,3,7,default,
7,8,1,4,"[54, 30, 77, 48, 34, 59, 51, 31]",>,1250.0,2024-11-13 19:47:49.196250,3,3,default,
8,9,1,5,"[39, 54, 46, 67, 71, 41, 36, 78]",<,703.0,2024-11-13 19:47:54.811057,3,7,default,
9,10,1,6,"[57, 44, 40, 45, 59, 87, 40, 44]",>,642.0,2024-11-13 19:48:00.389201,3,6,default,
10,11,1,7,"[28, 76, 51, 60, 56, 37, 33, 43]",<,590.0,2024-11-13 19:48:05.898263,3,3,default,
11,12,1,8,"[65, 23, 46, 47, 54, 34, 16, 43]",<,1434.0,2024-11-13 19:48:12.273103,3,0,default,
12,13,1,9,"[51, 53, 26, 44, 26, 71, 60, 37]",>,2.0,2024-11-13 19:48:17.228334,3,2,default,
13,14,1,10,"[43, 57, 49, 29, 58, 59, 79, 34]",<,52.0,2024-11-13 19:48:22.265206,3,5,default,
14,15,1,2,"[34, 59, 30, 45, 29, 41, 76, 38]",>,41281.0,2024-11-13 20:03:40.997131,4,1,default,
15,16,1,3,"[85, 48, 60, 40, 38, 60, 40, 61]",>,888.0,2024-11-13 20:03:46.822582,4,7,default,
16,17,1,4,"[66, 65, 27, 50, 40, 64, 45, 27]",>,535.0,2024-11-13 20:03:52.318290,4,3,default,
17,18,1,5,"[70, 27, 46, 21, 43, 51, 60, 50]",>,60.0,2024-11-13 20:03:57.358040,4,2,default,
18,19,1,6,"[27, 65, 43, 58, 58, 75, 46, 36]",<,625.0,2024-11-13 20:04:02.930852,4,5,default,
19,20,1,7,"[73, 48, 49, 45, 28, 48, 48, 77]",>,273.0,2024-11-13 20:04:08.121523,4,6,default,
20,21,1,8,"[46, 73, 49, 40, 21, 54, 58, 67]",>,654.0,2024-11-13 20:04:13.699844,4,5,default,
21,22,1,9,"[57, 64, 79, 50, 58, 83, 46, 35]",<,221.0,2024-11-13 20:04:18.835512,4,9,default,
22,23,1,10,"[49, 43, 30, 83, 50, 48, 45, 68]",>,771.0,2024-11-13 20:04:24.575463,4,6,default,
23,24,1,2,"[48, 68, 32, 49, 34, 63, 77, 45]",<,211.0,2024-11-13 20:14:24.722994,6,6,default,
24,25,1,3,"[16, 22, 46, 50, 36, 42, 49, 67]",>,326.0,2024-11-13 20:14:29.959386,6,0,default,
25,26,1,2,"[43, 43, 31, 26, 52, 67, 66, 64]",>,1399.0,2024-11-13 20:19:00.182530,8,4,default,
26,27,1,2,"[51, 35, 65, 66, 54, 47, 17, 49]",>,1030.0,2024-11-13 20:21:08.582425,9,3,default,
27,28,1,2,"[60, 65, 55, 44, 64, 21, 67, 40]",<,1558.0,2024-11-13 20:27:27.601329,11,6,default,
28,29,1,3,"[80, 62, 69, 46, 65, 48, 31, 71]",>,278.0,2024-11-13 20:27:34.337689,11,9,default,
29,30,1,4,"[37, 30, 45, 45, 40, 31, 44, 80]",<,253.0,2024-11-13 20:27:39.548593,11,1,default,
30,31,1,5,"[47, 56, 69, 54, 45, 70, 55, 20]",>,244.0,2024-11-13 20:27:44.737353,11,6,default,
31,32,1,6,"[49, 50, 83, 36, 46, 64, 55, 33]",<,1003.0,2024-11-13 20:27:50.664914,11,6,default,
32,33,1,7,"[51, 54, 48, 23, 40, 70, 36, 70]",>,168.0,2024-11-13 20:27:55.762913,11,4,default,
33,34,1,8,"[57, 31, 42, 49, 21, 58, 28, 66]",<,150.0,2024-11-13 20:28:00.856046,11,1,default,
34,35,1,9,"[37, 28, 49, 66, 48, 28, 18, 54]",>,863.0,2024-11-13 20:28:06.635643,11,0,default,
35,36,1,10,"[40, 76, 63, 46, 36, 46, 53, 24]",>,866.0,2024-11-13 20:28:12.422332,11,3,default,
36,37,1,2,"[65, 61, 60, 81, 25, 62, 68, 50]",>,508.0,2024-11-13 20:29:00.264491,12,9,default,
37,38,1,2,"[77, 30, 42, 43, 35, 55, 62, 64]",>,643.0,2024-11-13 20:50:53.269401,13,5,default,
38,39,1,3,"[66, 71, 67, 52, 29, 33, 42, 48]",>,1312.0,2024-11-13 20:51:03.869170,13,5,default,
39,40,1,4,"[47, 30, 61, 51, 52, 44, 32, 11]",>,342.0,2024-11-13 20:51:09.167529,13,0,default,
40,41,1,5,"[32, 57, 78, 69, 70, 53, 50, 39]",>,6408.0,2024-11-13 20:51:25.116540,13,8,default,
41,42,1,6,"[59, 48, 21, 48, 62, 33, 57, 24]",<,12.0,2024-11-13 20:51:30.061933,13,1,default,
42,43,1,7,"[30, 44, 65, 64, 73, 57, 59, 80]",<,16.0,2024-11-13 20:51:35.049823,13,9,default,
43,44,1,8,"[39, 54, 60, 59, 21, 63, 70, 42]",<,871.0,2024-11-13 20:51:40.855862,13,5,default,
44,45,1,9,"[27, 62, 81, 55, 54, 61, 40, 52]",<,149.0,2024-11-13 20:51:45.919840,13,7,default,
45,46,1,10,"[46, 38, 33, 58, 59, 66, 63, 21]",<,349.0,2024-11-13 20:51:51.239816,13,3,default,
46,47,1,2,"[46, 44, 30, 59, 78, 64, 55, 32]",>,19.0,2024-11-13 20:53:21.216972,14,5,default,
47,48,1,3,"[52, 41, 64, 23, 43, 55, 77, 53]",>,234.0,2024-11-13 20:53:26.374236,14,5,default,
48,49,1,4,"[63, 46, 72, 41, 28, 39, 55, 72]",>,117.0,2024-11-13 20:53:31.435888,14,6,default,
49,50,1,5,"[54, 52, 26, 81, 44, 47, 42, 38]",>,10518.0,2024-11-13 20:53:46.908206,14,3,default,
50,51,1,6,"[55, 41, 64, 47, 56, 29, 37, 79]",>,734.0,2024-11-13 20:53:52.613834,14,5,default,
51,52,1,7,"[55, 50, 65, 56, 52, 15, 48, 67]",>,763.0,2024-11-13 20:53:58.322463,14,5,default,
52,53,1,8,"[73, 40, 21, 47, 60, 45, 63, 43]",>,476.0,2024-11-13 20:54:03.748295,14,4,default,
53,54,1,9,"[25, 47, 52, 52, 28, 52, 64, 72]",>,118.0,2024-11-13 20:54:08.820202,14,4,default,
54,55,1,10,"[29, 59, 54, 31, 52, 62, 22, 59]",>,202.0,2024-11-13 20:54:13.949405,14,2,default,
55,56,1,2,"[63, 53, 65, 24, 31, 54, 49, 69]",>,852.0,2024-11-14 01:03:34.029823,18,5,default,
56,57,1,3,"[29, 72, 56, 35, 68, 63, 39, 46]",>,209.0,2024-11-14 01:03:39.145897,18,5,default,
57,58,1,4,"[78, 65, 29, 57, 39, 61, 45, 42]",>,553.0,2024-11-14 01:03:44.608323,18,6,default,
58,59,1,5,"[47, 22, 79, 40, 52, 47, 43, 54]",>,789.0,2024-11-14 01:03:50.312360,18,3,default,
59,60,1,6,"[45, 81, 63, 31, 53, 52, 50, 33]",>,1796.0,2024-11-14 01:04:18.665055,18,5,default,
60,61,1,2,"[51, 46, 40, 38, 69, 44, 82, 38]",>,446.0,2024-11-14 01:04:59.626545,18,5,default,
61,62,1,3,"[59, 40, 64, 32, 67, 25, 61, 60]",>,763.0,2024-11-14 01:05:05.306056,18,5,default,
62,63,1,4,"[62, 54, 53, 66, 25, 47, 73, 36]",>,29.0,2024-11-14 01:05:10.244645,18,6,default,
63,64,1,5,"[60, 58, 34, 45, 20, 67, 60, 40]",>,575.0,2024-11-14 01:05:15.726824,18,3,default,
64,65,1,2,"[52, 74, 34, 56, 60, 25, 62, 45]",>,2023.0,2024-11-14 01:13:12.237604,18,5,default,
65,66,1,3,"[17, 63, 50, 63, 54, 57, 64, 40]",>,1495.0,2024-11-14 01:13:18.658254,18,5,default,
66,67,1,2,"[59, 62, 70, 23, 59, 43, 34, 58]",>,2289.0,2024-11-14 01:14:57.448747,18,5,default,
67,68,1,3,"[43, 71, 48, 71, 64, 44, 37, 30]",>,7725.0,2024-11-14 01:15:16.223559,18,5,default,
68,69,1,4,"[24, 62, 51, 68, 45, 43, 48, 75]",>,1039.0,2024-11-14 01:15:22.164929,18,6,default,
69,70,1,2,"[55, 76, 24, 39, 54, 46, 50, 64]",>,1760.0,2024-11-14 01:15:31.968504,18,5,default,
70,71,1,2,"[70, 45, 63, 37, 61, 30, 36, 66]",>,1855.0,2024-11-14 01:17:01.791684,18,5,default,
71,72,1,3,"[37, 60, 36, 64, 39, 60, 35, 77]",>,372.0,2024-11-14 01:17:21.705524,18,5,default,
72,73,1,4,"[57, 56, 80, 51, 51, 58, 24, 39]",>,7210.0,2024-11-14 01:17:35.933680,18,6,default,
73,74,1,2,"[55, 84, 32, 56, 53, 44, 49, 35]",>,955.0,2024-11-14 01:18:12.472804,18,5,default,
74,75,1,2,"[63, 23, 64, 52, 69, 41, 60, 36]",>,1333.0,2024-11-14 01:20:41.131308,18,5,default,
75,76,1,3,"[50, 25, 65, 64, 28, 56, 66, 54]",>,1612.0,2024-11-14 01:20:55.933561,18,5,default,
76,77,1,2,"[55, 64, 17, 48, 57, 54, 42, 71]",>,2401.0,2024-11-14 01:22:18.331403,18,5,default,
77,78,1,2,"[37, 54, 74, 66, 40, 66, 35, 36]",>,907.0,2024-11-14 01:23:06.449839,18,5,default,
78,79,1,3,"[31, 76, 61, 66, 55, 44, 35, 40]",>,1415.0,2024-11-14 01:23:15.328107,18,5,default,
79,80,1,2,"[47, 57, 71, 61, 28, 49, 66, 29]",>,640.0,2024-11-14 01:23:55.560178,18,5,default,
80,81,1,3,"[80, 45, 43, 63, 47, 44, 60, 26]",>,1779.0,2024-11-14 01:24:03.517922,18,5,default,
81,82,1,4,"[55, 58, 48, 54, 36, 43, 36, 86]",>,1070.0,2024-11-14 01:24:09.495908,18,6,default,
82,83,1,2,"[78, 42, 36, 34, 60, 68, 45, 45]",>,1607.0,2024-11-14 01:28:24.057299,18,5,default,
83,84,1,2,"[62, 14, 46, 58, 59, 59, 51, 59]",>,1238.0,2024-11-14 01:29:25.136303,18,5,default,
84,85,1,3,"[66, 56, 40, 25, 35, 66, 67, 53]",>,1286.0,2024-11-14 01:29:31.328888,18,5,default,
85,86,1,4,"[65, 27, 37, 76, 44, 60, 47, 60]",>,1127.0,2024-11-14 01:29:37.375151,18,6,default,
86,87,1,2,"[20, 60, 56, 71, 37, 51, 62, 51]",>,1015.0,2024-11-14 01:47:09.039391,18,5,default,
87,88,1,3,"[45, 71, 36, 57, 63, 27, 41, 68]",>,1475.0,2024-11-14 01:47:15.438130,18,5,default,
88,89,1,4,"[36, 65, 72, 47, 42, 29, 70, 55]",>,1581.0,2024-11-14 01:47:21.924179,18,6,default,
89,90,1,2,"[48, 68, 25, 70, 57, 31, 56, 53]",>,771.0,2024-11-14 01:47:55.768237,18,5,default,
90,91,1,3,"[52, 52, 40, 81, 64, 43, 47, 29]",>,973.0,2024-11-14 01:48:01.671503,18,5,default,
91,92,1,4,"[37, 51, 66, 55, 72, 68, 38, 29]",>,601.0,2024-11-14 01:48:07.169980,18,6,default,
92,93,1,2,"[70, 63, 30, 45, 35, 69, 38, 58]",>,1325.0,2024-11-14 01:49:00.545966,18,5,default,
93,94,1,3,"[59, 83, 39, 59, 33, 47, 40, 48]",>,2357.0,2024-11-14 01:49:07.804984,18,5,default,
94,95,1,2,"[43, 80, 64, 59, 50, 29, 41, 42]",>,1924.0,2024-11-14 01:51:02.707198,18,5,default,
95,96,1,2,"[57, 26, 68, 54, 66, 49, 28, 60]",>,1670.0,2024-11-14 01:52:33.715344,18,5,default,
96,97,1,2,"[57, 67, 21, 65, 62, 52, 34, 50]",>,1433.0,2024-11-14 01:55:07.633188,18,5,default,
97,98,1,3,"[60, 37, 20, 55, 62, 51, 50, 73]",>,935.0,2024-11-14 01:55:13.493016,18,5,default,
98,99,1,2,"[78, 52, 50, 52, 26, 46, 66, 38]",>,1237.0,2024-11-14 01:59:52.745754,18,5,default,
99,100,1,3,"[42, 61, 63, 71, 46, 39, 62, 24]",>,1732.0,2024-11-14 02:00:01.192933,18,5,default,
100,101,1,4,"[24, 69, 45, 51, 50, 53, 47, 77]",>,2437.0,2024-11-14 02:00:08.576652,18,6,default,
101,102,1,2,"[30, 35, 44, 60, 40, 59, 62, 78]",>,1195.0,2024-11-14 02:03:21.120151,18,5,default,
102,103,1,3,"[62, 58, 57, 58, 45, 67, 44, 17]",>,774.0,2024-11-14 02:03:30.352592,18,5,default,
103,104,1,2,"[51, 44, 42, 41, 70, 70, 25, 65]",>,1141.0,2024-11-14 02:04:06.893801,18,5,default,
104,105,1,3,"[54, 59, 72, 57, 20, 44, 39, 63]",>,2953.0,2024-11-14 02:04:14.759372,18,5,default,
105,106,1,2,"[47, 52, 52, 26, 62, 32, 64, 73]",>,1502.0,2024-11-14 02:04:56.157012,18,5,default,
106,107,1,2,"[67, 66, 32, 36, 36, 41, 62, 68]",>,775.0,2024-11-14 02:06:11.869796,18,5,default,
107,108,1,2,"[71, 44, 38, 72, 58, 36, 30, 59]",>,1816.0,2024-11-14 13:58:57.682194,19,5,default,
108,109,1,2,"[26, 58, 36, 68, 45, 45, 72, 58]",>,5695.0,2024-11-14 13:59:59.581443,19,5,default,
109,110,1,3,"[55, 52, 55, 49, 45, 78, 55, 19]",>,2168.0,2024-11-14 14:00:09.643175,19,5,default,
110,111,1,2,"[59, 55, 58, 66, 22, 36, 42, 70]",>,1933.0,2024-11-14 14:00:51.850460,19,5,default,
111,112,1,3,"[60, 74, 48, 60, 40, 44, 33, 25]",<,1642.0,2024-11-14 14:01:01.998187,19,3,default,
112,113,1,4,"[66, 24, 38, 65, 66, 66, 44, 47]",>,2509.0,2024-11-14 14:01:09.465640,19,6,default,
113,114,1,5,"[69, 51, 49, 54, 44, 45, 12, 44]",<,769.0,2024-11-14 14:01:15.176944,19,2,default,
114,115,1,6,"[34, 73, 68, 76, 42, 47, 51, 41]",<,1491.0,2024-11-14 14:01:24.608205,19,7,default,
115,116,1,7,"[68, 50, 26, 55, 53, 21, 39, 56]",>,1070.0,2024-11-14 14:01:30.652079,19,2,default,
116,117,1,8,"[72, 23, 66, 40, 52, 53, 62, 64]",>,14198.0,2024-11-14 14:01:55.082035,19,7,default,
117,118,1,9,"[49, 53, 55, 67, 53, 12, 54, 49]",<,1007.0,2024-11-14 14:02:01.015777,19,4,default,
118,119,1,10,"[70, 49, 30, 53, 51, 28, 56, 71]",>,1057.0,2024-11-14 14:02:07.053665,19,5,default,
119,120,1,2,"[56, 43, 19, 70, 48, 68, 55, 49]",>,1615.0,2024-11-14 14:02:48.856564,20,5,default,
120,121,1,3,"[47, 26, 44, 75, 35, 56, 60, 65]",>,857.0,2024-11-14 14:02:56.237336,20,5,default,
121,122,1,4,"[39, 27, 43, 45, 67, 32, 63, 68]",<,1206.0,2024-11-14 14:03:02.364590,20,3,default,
122,123,1,5,"[51, 61, 41, 36, 28, 75, 64, 60]",>,1234.0,2024-11-14 14:03:10.446987,20,6,default,
123,124,1,6,"[68, 28, 32, 28, 53, 39, 57, 63]",<,1020.0,2024-11-14 14:03:16.378029,20,2,default,
124,125,1,2,"[62, 36, 29, 61, 43, 71, 66, 40]",>,9344.0,2024-11-14 14:29:16.237300,25,5,default,
125,126,1,2,"[35, 67, 54, 42, 72, 47, 64, 27]",>,994.0,2024-11-14 14:29:54.026040,25,5,default,
126,127,1,3,"[49, 79, 53, 35, 42, 54, 25, 47]",<,985.0,2024-11-14 14:30:01.842214,25,3,default,
127,128,1,4,"[57, 56, 24, 65, 51, 54, 35, 74]",>,1770.0,2024-11-14 14:30:08.596334,25,6,default,
128,129,1,5,"[32, 58, 55, 26, 65, 25, 51, 56]",<,862.0,2024-11-14 14:30:18.636484,25,2,default,
129,130,1,6,"[38, 71, 59, 74, 60, 53, 52, 25]",>,1360.0,2024-11-14 14:30:26.398070,25,7,default,
130,131,1,7,"[38, 56, 56, 36, 33, 78, 35, 60]",<,1353.0,2024-11-14 14:30:33.822203,25,4,default,
131,132,1,8,"[64, 44, 43, 87, 48, 47, 40, 43]",>,1544.0,2024-11-14 14:30:40.303524,25,6,default,
132,133,1,9,"[41, 78, 45, 46, 23, 35, 46, 54]",>,509.0,2024-11-14 14:30:46.894973,25,2,default,
133,134,1,10,"[27, 52, 60, 70, 39, 70, 44, 70]",<,1002.0,2024-11-14 14:30:52.841630,25,7,default,
134,135,1,2,"[68, 57, 23, 56, 59, 65, 32, 48]",>,2717.0,2024-11-19 15:56:54.530122,26,5,default,
135,136,1,3,"[43, 39, 51, 26, 64, 30, 66, 65]",<,1126.0,2024-11-19 15:57:01.960854,26,3,default,
136,137,1,4,"[43, 63, 38, 46, 27, 72, 61, 66]",<,681.0,2024-11-19 15:57:07.482168,26,6,default,
137,138,1,5,"[41, 53, 43, 23, 48, 67, 66, 27]",>,659272.0,2024-11-19 16:08:12.910735,26,2,default,
138,139,1,2,"[60, 54, 26, 41, 52, 35, 71, 69]",<,5065.0,2024-11-19 16:08:43.522262,27,5,default,
139,140,1,2,"[43, 80, 45, 35, 63, 62, 47, 33]",>,1005.0,2024-11-19 16:26:46.532504,28,5,default,
140,141,1,2,"[22, 34, 68, 60, 67, 53, 48, 56]",>,18576.0,2024-11-19 16:39:33.505044,3705,5,default,
141,142,1,3,"[50, 30, 51, 69, 54, 67, 40, 23]",<,562.0,2024-11-19 16:40:11.402866,2683,3,default,
142,143,1,4,"[74, 49, 40, 22, 48, 37, 62, 36]",<,47031.0,2024-11-19 16:41:11.729434,<django.db.models.query_utils.DeferredAttribute object at 0x10519db50>,2,default,
143,144,1,2,"[38, 61, 60, 23, 54, 70, 63, 39]",<,806.0,2024-11-19 16:43:46.229405,<django.db.models.query_utils.DeferredAttribute object at 0x1040ed5d0>,5,default,
144,145,1,2,"[66, 72, 45, 40, 55, 37, 65, 28]",<,1555.0,2024-11-19 16:45:26.068901,2,5,default,
145,146,1,2,"[70, 31, 61, 72, 32, 51, 51, 40]",<,2125.0,2024-11-19 16:49:29.622250,2,5,default,
146,147,1,2,"[37, 74, 57, 67, 50, 54, 24, 45]",<,1422.0,2024-11-19 16:51:13.438106,2,5,default,
147,148,1,2,"[67, 55, 30, 51, 34, 38, 74, 59]",<,982.0,2024-11-19 17:53:09.601083,41,5,default,
148,149,1,3,"[53, 49, 51, 22, 25, 67, 59, 58]",<,752.0,2024-11-19 17:54:13.254199,41,3,default,
149,150,1,4,"[52, 62, 46, 40, 68, 33, 79, 36]",>,1520.0,2024-11-19 17:54:23.246767,41,6,default,
150,151,1,5,"[79, 68, 27, 58, 51, 50, 59, 40]",>,45942.0,2024-11-19 17:55:15.084160,41,7,default,
151,152,1,6,"[52, 9, 51, 49, 57, 55, 57, 38]",>,925.0,2024-11-19 17:55:21.967657,41,2,default,
152,153,1,7,"[40, 43, 70, 43, 71, 79, 41, 45]",<,775.0,2024-11-19 17:56:11.101559,41,7,default,
153,154,1,2,"[31, 77, 53, 48, 54, 52, 28, 65]",<,5138.0,2024-11-19 18:00:21.782387,44,5,default,
154,155,1,3,"[34, 64, 54, 47, 57, 70, 31, 27]",<,6455.0,2024-11-19 18:00:33.759186,44,3,default,
155,156,1,2,"[67, 49, 45, 53, 70, 21, 62, 41]",>,2612.0,2024-11-19 18:28:17.669496,51,5,default,
156,157,1,2,"[60, 44, 30, 33, 44, 74, 52, 71]",>,1410.0,2024-11-19 18:29:46.686673,52,5,default,
157,158,1,2,"[64, 69, 36, 45, 34, 34, 72, 54]",>,1070.0,2024-11-19 18:39:02.473173,53,5,default,
158,159,1,3,"[33, 51, 60, 50, 43, 77, 46, 24]",<,3623.0,2024-11-19 18:39:12.881036,53,3,default,
159,160,1,4,"[54, 24, 46, 38, 54, 74, 58, 68]",<,2767.0,2024-11-19 18:39:20.488994,53,6,default,
160,161,1,5,"[41, 16, 62, 34, 65, 57, 49, 44]",>,1498.0,2024-11-19 18:39:28.612560,53,2,default,
161,162,1,6,"[47, 44, 56, 75, 59, 41, 78, 32]",<,942.0,2024-11-19 18:39:34.396648,53,7,default,
162,163,1,7,"[43, 28, 48, 59, 39, 35, 80, 52]",>,13209.0,2024-11-19 18:39:53.923981,53,3,default,
163,164,1,8,"[71, 58, 74, 38, 45, 61, 36, 33]",>,1016.0,2024-11-19 18:39:59.764230,53,6,default,
164,165,1,2,"[40, 51, 20, 57, 55, 56, 76, 53]",>,1015.0,2024-11-19 18:46:41.796902,54,5,default,
165,166,1,3,"[43, 67, 34, 48, 46, 76, 63, 31]",>,901.0,2024-11-19 18:48:11.181154,54,5,default,
166,167,1,4,"[59, 27, 44, 35, 62, 29, 62, 66]",<,992.0,2024-11-19 18:48:17.008356,54,3,default,
167,168,1,5,"[64, 55, 63, 27, 37, 66, 68, 36]",<,70442.0,2024-11-19 18:49:41.084707,54,6,default,
168,169,1,6,"[52, 44, 65, 41, 19, 54, 30, 63]",<,650.0,2024-11-19 18:49:46.580849,54,2,default,
169,170,1,2,"[25, 37, 46, 71, 43, 68, 58, 60]",<,890.0,2024-11-19 18:49:56.674758,54,5,default,
170,171,1,2,"[32, 63, 39, 48, 75, 35, 48, 68]",<,711.0,2024-11-19 18:50:35.513678,54,5,default,
171,172,1,2,"[44, 49, 60, 85, 49, 34, 50, 37]",<,875.0,2024-11-19 18:52:21.838430,54,5,default,
172,173,1,2,"[77, 45, 32, 70, 46, 42, 59, 37]",<,826.0,2024-11-19 18:54:11.757021,55,5,default,
173,174,1,2,"[34, 48, 41, 78, 49, 72, 48, 38]",<,1701.0,2024-11-19 19:02:07.666522,56,5,default,
174,175,1,2,"[51, 40, 37, 34, 56, 79, 69, 42]",<,1039.0,2024-11-19 19:02:50.885979,56,5,default,
175,176,1,2,"[43, 74, 34, 75, 49, 53, 49, 31]",>,1215.0,2024-11-19 19:13:33.185572,57,5,default,
176,177,1,3,"[41, 52, 65, 34, 47, 47, 83, 39]",>,1261.0,2024-11-19 19:13:39.291182,57,5,default,
177,178,1,2,"[24, 34, 67, 69, 43, 61, 56, 54]",<,1440.0,2024-11-19 19:26:45.297715,60,5,default,
178,179,1,3,"[28, 72, 50, 24, 57, 40, 57, 56]",>,2218.0,2024-11-19 19:26:52.391314,60,3,default,
179,180,1,4,"[60, 65, 68, 61, 31, 62, 29, 40]",<,1052.0,2024-11-19 19:27:01.034416,60,6,default,
180,181,1,5,"[37, 77, 64, 36, 35, 41, 57, 37]",<,883.0,2024-11-19 19:27:06.748121,60,3,default,
181,182,1,6,"[23, 36, 61, 40, 69, 63, 39, 53]",<,1334.0,2024-11-19 19:27:12.928526,60,3,default,
182,183,1,2,"[54, 74, 24, 37, 60, 40, 58, 61]",<,2773.0,2024-11-19 19:31:33.527024,61,5,default,
183,184,1,3,"[37, 23, 59, 51, 48, 48, 41, 77]",>,45776.0,2024-11-19 19:32:24.153539,61,3,default,
184,185,1,4,"[61, 72, 63, 26, 34, 61, 56, 43]",<,3067.0,2024-11-19 19:32:34.301239,61,6,default,
185,186,1,5,"[57, 55, 59, 37, 19, 52, 36, 69]",>,1471.0,2024-11-19 19:32:40.612247,61,3,default,
186,187,1,2,"[51, 44, 48, 22, 53, 65, 77, 48]",>,4201.0,2024-11-19 19:36:39.930834,62,5,default,
187,188,1,3,"[46, 25, 58, 66, 70, 49, 32, 62]",>,1164.0,2024-11-19 19:36:45.938345,62,5,default,
188,189,1,4,"[36, 46, 26, 38, 55, 71, 69, 43]",<,19344.0,2024-11-19 19:37:13.180372,62,3,default,
189,190,1,5,"[49, 38, 51, 48, 33, 80, 46, 71]",<,19936.0,2024-11-19 19:37:37.949170,62,6,default,
190,191,1,6,"[44, 42, 16, 48, 62, 68, 37, 51]",>,1461.0,2024-11-19 19:37:44.242788,62,2,default,
191,192,1,7,"[60, 80, 67, 49, 56, 30, 54, 36]",>,4555.0,2024-11-19 19:37:55.589451,62,7,default,
192,193,1,8,"[41, 58, 72, 51, 49, 35, 76, 34]",>,594.0,2024-11-19 19:38:01.015344,62,6,default,
193,194,1,9,"[61, 65, 60, 48, 16, 65, 51, 50]",>,13592.0,2024-11-19 19:38:19.470068,62,6,default,
194,195,1,10,"[36, 28, 58, 30, 37, 74, 53, 52]",<,873.0,2024-11-19 19:38:26.870842,62,2,default,
195,196,1,2,"[51, 38, 63, 29, 73, 68, 36, 50]",<,1051.0,2024-11-19 23:53:44.655571,63,5,default,
196,197,1,2,"[73, 37, 35, 27, 59, 56, 63, 58]",<,641.0,2024-11-19 23:57:47.716432,65,5,default,
197,198,1,3,"[66, 40, 37, 47, 37, 58, 26, 73]",<,82464.0,2024-11-19 23:59:19.310407,65,3,default,
198,199,1,2,"[63, 78, 57, 46, 49, 23, 46, 46]",<,1133.0,2024-11-19 23:59:28.598297,65,5,default,
199,200,1,3,"[55, 56, 42, 21, 43, 62, 71, 34]",<,595.0,2024-11-19 23:59:34.027647,65,3,default,
200,201,1,4,"[53, 70, 19, 48, 44, 39, 65, 54]",<,675.0,2024-11-19 23:59:42.394316,65,4,default,
201,202,1,2,"[40, 64, 19, 60, 47, 67, 50, 61]",>,1779.0,2024-11-20 00:00:33.766760,65,5,default,
202,203,1,3,"[54, 36, 73, 37, 29, 52, 69, 58]",>,640.0,2024-11-20 00:00:39.251167,65,5,default,
203,204,1,4,"[64, 47, 66, 70, 28, 36, 64, 41]",>,775.0,2024-11-20 00:00:46.021723,65,6,default,
204,205,1,2,"[62, 62, 54, 53, 18, 44, 70, 45]",<,903.0,2024-11-20 00:01:05.564858,65,5,default,
205,206,1,3,"[33, 56, 72, 19, 48, 48, 54, 54]",<,671.0,2024-11-20 00:01:11.082918,65,3,default,
206,207,1,2,"[52, 63, 55, 76, 22, 40, 55, 45]",<,1362.0,2024-11-20 00:07:39.804085,65,5,default,
207,208,1,3,"[70, 50, 40, 39, 31, 55, 70, 29]",<,1372.0,2024-11-20 00:07:47.606790,65,3,default,
208,209,1,2,"[47, 54, 43, 32, 30, 63, 60, 79]",<,959.0,2024-11-20 00:09:15.003172,65,5,default,
209,210,1,3,"[64, 57, 18, 62, 43, 48, 60, 32]",>,1484.0,2024-11-20 00:09:22.852980,65,3,default,
210,211,1,4,"[74, 40, 71, 31, 49, 60, 55, 36]",<,2071.0,2024-11-20 00:09:31.824570,65,6,default,
211,212,1,5,"[58, 59, 52, 51, 59, 31, 15, 59]",>,3769.0,2024-11-20 00:09:41.779130,65,3,default,
212,213,1,6,"[63, 26, 54, 45, 47, 68, 39, 74]",>,781.0,2024-11-20 00:09:48.816236,65,6,default,
213,214,1,2,"[55, 71, 49, 27, 60, 53, 65, 28]",<,1646.0,2024-11-20 00:14:30.608561,66,5,default,
214,215,1,3,"[56, 73, 20, 38, 52, 60, 46, 39]",>,1289.0,2024-11-20 00:14:38.000882,66,3,default,
215,216,1,4,"[52, 73, 46, 73, 60, 26, 45, 41]",>,1024.0,2024-11-20 00:14:44.895120,66,6,default,
216,217,1,5,"[53, 63, 48, 82, 36, 58, 31, 45]",>,10097.0,2024-11-20 00:15:01.531853,66,6,default,
217,218,1,6,"[58, 71, 30, 32, 63, 70, 44, 48]",>,728.0,2024-11-20 00:15:08.285313,66,6,default,
218,219,1,7,"[36, 47, 71, 25, 43, 38, 69, 39]",<,902.0,2024-11-20 00:15:14.711132,66,2,default,
219,220,1,8,"[36, 44, 25, 59, 60, 24, 55, 65]",<,677.0,2024-11-20 00:15:21.049518,66,2,default,
220,221,1,9,"[61, 44, 73, 76, 49, 40, 59, 30]",<,828.0,2024-11-20 00:15:27.679646,66,7,default,
221,222,1,10,"[14, 48, 50, 41, 68, 44, 42, 61]",<,11574.0,2024-11-20 00:16:06.065836,66,2,default,
222,223,1,2,"[54, 35, 54, 72, 33, 43, 75, 42]",<,563.0,2024-11-20 00:20:21.428798,66,5,default,
223,224,1,3,"[78, 54, 47, 32, 60, 45, 29, 39]",<,919.0,2024-11-20 00:20:28.209985,66,3,default,
224,225,1,4,"[65, 32, 54, 21, 61, 52, 65, 42]",<,815.0,2024-11-20 00:20:34.626917,66,4,default,
225,226,1,5,"[63, 59, 21, 69, 44, 41, 52, 67]",>,1370.0,2024-11-20 00:20:42.439573,66,6,default,
226,227,1,2,"[47, 77, 53, 48, 66, 26, 36, 55]",>,1458.0,2024-11-20 00:23:58.774350,66,5,default,
227,228,1,3,"[64, 32, 48, 52, 68, 55, 24, 65]",>,545.0,2024-11-20 00:24:04.819972,66,5,default,
228,229,1,4,"[58, 60, 27, 72, 51, 69, 36, 43]",>,635.0,2024-11-20 00:24:10.874960,66,6,default,
229,230,1,2,"[30, 41, 56, 43, 44, 57, 84, 53]",<,774.0,2024-11-20 00:24:50.696796,66,5,default,
230,231,1,3,"[45, 75, 41, 67, 45, 50, 32, 29]",<,103012.0,2024-11-20 00:26:40.132132,66,3,default,
231,232,1,4,"[40, 66, 34, 56, 39, 80, 60, 41]",>,577.0,2024-11-20 00:27:57.765887,66,6,default,
232,233,1,5,"[40, 76, 49, 44, 78, 60, 51, 34]",>,575.0,2024-11-20 00:28:03.755129,66,7,default,
233,234,1,6,"[35, 65, 23, 60, 33, 63, 53, 36]",<,898.0,2024-11-20 00:28:10.229898,66,2,default,
234,235,1,7,"[63, 56, 65, 46, 32, 37, 19, 50]",<,967.0,2024-11-20 00:28:17.234264,66,2,default,
235,236,1,8,"[66, 63, 35, 61, 33, 32, 56, 70]",>,826.0,2024-11-20 00:28:23.618461,66,6,default,
236,237,1,9,"[77, 45, 54, 30, 50, 64, 41, 31]",>,802.0,2024-11-20 00:28:29.909899,66,4,default,
237,238,1,10,"[27, 76, 54, 38, 62, 68, 59, 48]",>,2072.0,2024-11-20 00:28:57.865557,66,7,default,
238,239,1,2,"[58, 18, 44, 69, 60, 42, 60, 57]",<,1720.0,2024-11-20 00:29:49.834616,68,5,default,
239,240,1,3,"[29, 62, 38, 28, 40, 66, 57, 64]",>,2247.0,2024-11-20 00:29:58.057128,68,3,default,
240,241,1,4,"[44, 45, 74, 68, 66, 28, 52, 39]",>,2253.0,2024-11-20 00:30:06.031537,68,6,default,
241,242,1,5,"[27, 51, 44, 51, 61, 52, 65, 17]",<,4745.0,2024-11-20 00:30:17.548436,68,2,default,
242,243,1,2,"[50, 65, 46, 38, 67, 22, 68, 52]",<,617.0,2024-11-20 00:35:13.322019,69,5,default,
243,244,1,3,"[39, 42, 36, 79, 53, 61, 47, 27]",<,519.0,2024-11-20 00:35:19.371408,69,3,default,
244,245,1,4,"[61, 27, 49, 58, 71, 30, 59, 37]",<,670.0,2024-11-20 00:35:25.511232,69,4,default,
245,246,1,5,"[27, 74, 44, 35, 64, 49, 58, 65]",>,1511.0,2024-11-20 00:35:32.784864,69,6,default,
246,247,1,6,"[50, 43, 50, 35, 79, 55, 43, 77]",>,783.0,2024-11-20 00:35:39.438788,69,7,default,
247,248,1,7,"[40, 38, 21, 60, 54, 69, 31, 55]",>,815.0,2024-11-20 00:35:45.851949,69,2,default,
248,249,1,8,"[64, 57, 29, 40, 61, 66, 76, 39]",>,579.0,2024-11-20 00:35:51.871481,69,7,default,
249,250,1,9,"[44, 51, 73, 74, 60, 42, 27, 45]",>,589.0,2024-11-20 00:35:57.912907,69,6,default,
250,251,1,10,"[52, 49, 81, 46, 34, 76, 51, 43]",>,664.0,2024-11-20 00:36:04.082631,69,7,default,
251,252,1,2,"[54, 60, 25, 35, 62, 75, 43, 54]",<,995.0,2024-11-20 00:50:58.057156,70,5,default,
252,253,1,3,"[34, 45, 73, 46, 36, 33, 72, 45]",<,903.0,2024-11-20 00:51:07.380707,70,3,default,
253,254,1,4,"[53, 72, 57, 42, 26, 71, 38, 57]",>,881.0,2024-11-20 00:51:14.544762,70,6,default,
254,255,1,5,"[43, 84, 40, 51, 37, 32, 51, 54]",<,797.0,2024-11-20 00:51:22.381997,70,4,default,
255,256,1,2,"[55, 30, 79, 54, 61, 48, 30, 51]",<,2850.0,2024-11-20 11:13:03.752603,71,5,default,
256,257,1,2,"[50, 69, 23, 45, 40, 53, 75, 53]",>,1775.0,2024-11-20 11:13:22.498836,71,5,default,
257,258,1,3,"[60, 48, 62, 19, 70, 48, 41, 60]",>,3726.0,2024-11-20 11:13:31.756289,71,5,default,
258,259,1,2,"[30, 48, 72, 43, 48, 32, 66, 69]",<,1667.0,2024-11-20 11:14:05.725533,73,5,default,
259,260,1,3,"[59, 53, 75, 41, 51, 37, 48, 20]",<,2194.0,2024-11-20 11:14:13.804279,73,3,default,
260,261,1,4,"[50, 51, 30, 72, 69, 41, 52, 27]",<,2459.0,2024-11-20 11:14:21.946706,73,4,default,
261,262,1,2,"[69, 39, 72, 30, 40, 37, 60, 61]",<,1166.0,2024-11-20 14:03:52.424870,76,5,default,
262,263,1,2,"[68, 21, 56, 59, 25, 46, 46, 47]",<,167051.0,2024-11-20 14:44:56.919650,77,2,default,
263,264,1,3,"[43, 33, 19, 54, 61, 62, 65, 47]",<,797.0,2024-11-20 14:45:10.294988,77,3,default,
264,265,1,2,"[36, 49, 50, 48, 69, 71, 61, 24]",<,23819.0,2024-11-20 15:04:12.588101,1901,5,default,
265,266,1,2,"[62, 34, 59, 58, 56, 22, 46, 71]",<,1760.0,2024-11-20 15:05:21.526980,8177,5,default,
266,267,1,2,"[59, 82, 34, 40, 62, 40, 51, 40]",<,1519.0,2024-11-20 20:40:52.094806,8563,5,default,
267,268,1,3,"[48, 28, 70, 49, 55, 39, 27, 68]",<,733.0,2024-11-20 20:40:58.604964,8563,3,default,
268,269,1,4,"[51, 51, 56, 67, 16, 64, 46, 41]",<,544.0,2024-11-20 20:41:04.807251,8563,4,default,
269,270,1,5,"[30, 43, 68, 53, 51, 52, 38, 81]",<,457.0,2024-11-20 20:41:11.041357,8563,6,default,
270,271,1,2,"[32, 49, 36, 60, 64, 78, 37, 52]",<,579.0,2024-11-20 20:43:05.492077,5398,5,default,
271,272,1,2,"[39, 48, 76, 34, 44, 55, 74, 38]",<,616.0,2024-11-20 20:44:30.663332,9899,5,default,
272,273,1,3,"[43, 63, 51, 71, 22, 33, 57, 44]",<,1190.0,2024-11-20 20:44:41.048268,9899,3,default,
273,274,1,4,"[70, 42, 30, 72, 36, 53, 35, 54]",<,282397.0,2024-11-20 20:49:36.085753,9899,4,default,
274,275,1,2,"[42, 59, 22, 54, 59, 73, 38, 61]",<,37426.0,2024-11-20 21:02:29.521782,2166,5,default,
275,276,1,3,"[50, 31, 37, 34, 60, 53, 41, 78]",<,9356.0,2024-11-20 21:02:44.961801,2166,3,default,
276,277,1,4,"[48, 41, 77, 50, 26, 56, 48, 70]",>,1571.0,2024-11-20 21:02:52.106518,2166,6,default,
277,278,1,5,"[68, 49, 66, 61, 32, 50, 74, 32]",>,1538.0,2024-11-20 21:06:12.373342,2166,7,default,
278,279,1,6,"[76, 36, 35, 36, 67, 38, 39, 41]",<,1566.0,2024-11-20 21:06:19.369109,2166,2,default,
279,280,1,7,"[54, 34, 35, 82, 44, 42, 44, 33]",<,466.0,2024-11-20 21:06:25.632401,2166,2,default,
280,281,1,8,"[69, 61, 40, 56, 20, 53, 56, 37]",<,440.0,2024-11-20 21:06:31.293264,2166,4,default,
281,282,1,9,"[52, 55, 40, 23, 72, 66, 36, 48]",<,481.0,2024-11-20 21:06:37.003218,2166,4,default,
282,283,1,10,"[44, 29, 61, 48, 59, 83, 46, 62]",<,697.0,2024-11-20 21:06:43.611781,2166,7,default,
283,284,1,2,"[55, 24, 48, 64, 47, 60, 74, 36]",<,1551.0,2024-11-21 14:24:45.837581,5361,5,default,
284,285,1,3,"[62, 58, 69, 27, 34, 40, 34, 60]",<,28473.0,2024-11-21 14:25:21.297057,5361,3,default,
285,286,1,4,"[29, 34, 45, 64, 59, 37, 49, 75]",<,1698.0,2024-11-21 14:25:28.294958,5361,4,default,
286,287,1,5,"[78, 47, 51, 31, 55, 41, 71, 42]",<,2289.0,2024-11-21 14:25:35.884559,5361,6,default,
287,288,1,2,"[55, 73, 55, 42, 33, 72, 49, 29]",<,76020.0,2024-11-21 14:34:03.133512,3273,5,default,
288,289,1,3,"[70, 43, 68, 21, 53, 49, 45, 35]",<,103291.0,2024-11-21 14:36:04.389842,3273,3,default,
289,290,1,2,"[55, 78, 30, 59, 37, 47, 38, 64]",>,826.0,2024-11-21 14:43:57.173453,8923,5,default,
290,291,1,2,"[46, 59, 28, 68, 32, 43, 69, 63]",>,9059.0,2024-11-21 15:05:00.250684,751,5,default,
291,292,1,2,"[54, 66, 41, 38, 75, 57, 53, 24]",<,1734.0,2024-11-21 15:57:36.412729,2858,5,default,
292,293,1,3,"[25, 24, 45, 62, 65, 56, 49, 58]",<,1246.0,2024-11-21 15:57:49.806869,2858,3,default,
293,294,1,2,"[69, 48, 56, 41, 20, 62, 48, 64]",>,693.0,2024-11-21 16:10:58.388411,802,5,default,
294,295,1,2,"[77, 48, 33, 69, 41, 33, 60, 47]",<,818.0,2024-11-21 16:13:00.815915,5252,5,default,
295,296,1,2,"[71, 46, 29, 64, 67, 38, 57, 36]",<,1842.0,2024-11-21 16:19:09.955192,5906,5,default,
296,297,1,3,"[43, 68, 28, 41, 30, 71, 56, 47]",<,761.0,2024-11-21 16:19:16.635719,5906,3,default,
297,298,1,4,"[57, 78, 30, 40, 46, 63, 39, 63]",>,929.0,2024-11-21 16:19:23.005704,5906,6,default,
298,299,1,2,"[36, 50, 43, 51, 50, 88, 38, 52]",>,689.0,2024-11-21 16:23:10.910619,8856,5,default,
299,300,1,3,"[67, 42, 30, 76, 39, 42, 48, 64]",>,5083.0,2024-11-21 16:23:22.002854,8856,5,default,
300,301,1,2,"[64, 45, 50, 76, 42, 37, 29, 65]",<,725.0,2024-11-21 16:26:18.104778,3555,5,default,
301,302,1,3,"[35, 45, 30, 77, 59, 34, 58, 46]",>,881.0,2024-11-21 16:26:24.832661,3555,3,default,
302,303,1,2,"[43, 30, 31, 58, 50, 68, 52, 76]",>,748.0,2024-11-21 17:00:21.567504,7206,5,default,
303,304,1,3,"[40, 51, 49, 24, 67, 63, 29, 61]",<,1000.0,2024-11-21 17:00:28.706622,7206,3,default,
304,305,1,4,"[29, 59, 66, 74, 29, 55, 53, 51]",<,633.0,2024-11-21 17:00:34.923085,7206,6,default,
305,306,1,5,"[48, 59, 48, 37, 51, 29, 23, 73]",>,597.0,2024-11-21 17:00:41.047687,7206,2,default,
306,307,1,6,"[57, 30, 65, 79, 61, 36, 55, 49]",>,599.0,2024-11-21 17:00:47.455666,7206,7,default,
307,308,1,7,"[59, 17, 49, 40, 70, 60, 42, 47]",<,541.0,2024-11-21 17:00:53.379300,7206,3,default,
308,309,1,8,"[40, 83, 58, 30, 50, 57, 41, 57]",<,461.0,2024-11-21 17:00:59.246811,7206,6,default,
309,310,1,9,"[43, 55, 65, 52, 72, 39, 24, 34]",<,542.0,2024-11-21 17:01:05.169446,7206,3,default,
310,311,1,10,"[53, 39, 78, 63, 70, 45, 54, 30]",>,604.0,2024-11-21 17:01:11.174725,7206,7,default,
311,312,1,2,"[42, 68, 48, 30, 80, 45, 54, 41]",>,1281.0,2024-11-21 17:04:57.457502,1653,5,default,
312,313,1,3,"[73, 33, 62, 69, 40, 56, 38, 37]",>,66818.0,2024-11-21 17:06:12.932781,1653,5,default,
313,314,1,2,"[59, 39, 28, 42, 66, 51, 78, 45]",>,2072.0,2024-11-21 17:38:51.054451,1189,5,default,
314,315,1,3,"[58, 48, 74, 32, 29, 45, 68, 54]",>,896.0,2024-11-21 17:39:00.098474,1189,5,default,
315,316,1,4,"[49, 48, 71, 40, 83, 42, 42, 41]",>,4437.0,2024-11-21 17:39:19.018794,1189,6,default,
316,317,1,5,"[38, 43, 72, 60, 54, 56, 19, 42]",>,14793.0,2024-11-21 17:39:40.663473,1189,3,default,
317,318,1,2,"[80, 46, 40, 65, 48, 37, 32, 44]",>,449.0,2024-11-21 18:39:43.504107,5750,4,20,
318,319,1,3,"[41, 57, 70, 37, 47, 45, 81, 38]",>,493.0,2024-11-21 18:39:55.463271,5750,6,20,
319,320,1,4,"[41, 74, 49, 36, 54, 45, 51, 18]",<,619.0,2024-11-21 18:40:03.845242,5750,2,20,
320,321,1,5,"[74, 31, 59, 56, 51, 59, 86, 56]",>,1216.0,2024-11-21 18:40:10.653692,5750,9,20,
321,322,1,2,"[54, 33, 53, 42, 35, 10, 60, 41]",>,3369.0,2024-11-23 21:26:47.942973,4146,0,20,
322,323,1,3,"[46, 48, 44, 32, 33, 74, 71, 60]",<,1184.0,2024-11-23 21:26:57.380744,4146,5,20,
323,324,1,4,"[36, 54, 36, 68, 53, 16, 51, 54]",>,1430.0,2024-11-23 21:27:05.141802,4146,2,20,
324,325,1,5,"[52, 58, 71, 86, 41, 50, 41, 73]",<,1855.0,2024-11-23 21:27:21.355757,4146,9,20,
325,326,1,6,"[41, 80, 59, 57, 60, 48, 47, 24]",>,1182.0,2024-11-23 21:27:28.945893,4146,6,20,
326,327,1,7,"[76, 56, 38, 58, 34, 57, 60, 29]",>,1032.0,2024-11-23 21:27:36.016792,4146,5,20,
327,328,1,8,"[79, 75, 33, 55, 60, 38, 52, 56]",<,821.0,2024-11-23 21:27:42.644169,4146,8,20,
328,329,1,9,"[50, 77, 36, 30, 39, 69, 57, 50]",<,1117.0,2024-11-23 21:27:50.954348,4146,5,20,
329,330,1,10,"[56, 45, 22, 27, 69, 58, 38, 37]",>,1964.0,2024-11-23 21:27:59.081758,4146,1,20,
330,331,1,2,"[23, 46, 58, 66, 69, 46, 36, 64]",<,1190.0,2024-11-23 21:35:20.664526,9485,5,10,
331,332,1,3,"[55, 72, 49, 77, 34, 44, 32, 53]",<,886.0,2024-11-23 21:35:27.601098,9485,6,10,
332,333,1,4,"[54, 65, 60, 54, 22, 61, 26, 50]",<,814.0,2024-11-23 21:35:34.679051,9485,4,10,
333,334,1,5,"[55, 57, 46, 77, 42, 28, 54, 73]",<,720.0,2024-11-23 21:35:41.345853,9485,7,10,
334,335,1,6,"[20, 46, 55, 74, 43, 37, 58, 51]",>,9410.0,2024-11-23 21:35:56.805780,9485,3,10,
335,336,1,7,"[41, 54, 67, 65, 53, 19, 64, 45]",>,735.0,2024-11-23 21:36:03.626298,9485,5,10,
336,337,1,8,"[16, 54, 56, 48, 55, 33, 68, 54]",>,750.0,2024-11-23 21:36:10.375313,9485,3,10,
337,338,1,9,"[21, 46, 33, 34, 58, 67, 45, 64]",>,749.0,2024-11-23 21:36:17.624124,9485,2,10,
338,339,1,10,"[32, 43, 71, 41, 62, 58, 60, 25]",>,721.0,2024-11-23 21:36:24.323823,9485,4,10,
339,340,1,2,"[34, 57, 33, 37, 67, 42, 69, 69]",>,3258.0,2024-11-23 21:40:28.033154,9485,5,10,
340,341,1,3,"[57, 60, 22, 30, 59, 47, 47, 70]",<,883.0,2024-11-23 21:40:35.978335,9485,4,10,
341,342,1,4,"[48, 55, 69, 48, 36, 60, 16, 52]",>,741.0,2024-11-23 21:40:42.478334,9485,3,10,
342,343,1,5,"[46, 75, 42, 63, 52, 53, 22, 63]",>,733.0,2024-11-23 21:40:48.944795,9485,6,10,
343,344,1,6,"[45, 69, 43, 42, 42, 60, 30, 77]",<,1334.0,2024-11-23 21:40:56.225313,9485,5,10,
344,345,1,7,"[18, 42, 59, 62, 36, 63, 53, 35]",>,803.0,2024-11-23 21:41:06.366438,9485,2,10,
345,346,1,8,"[71, 48, 21, 47, 40, 68, 50, 39]",>,739.0,2024-11-23 21:41:13.170212,9485,3,10,
346,347,1,9,"[62, 47, 85, 46, 37, 58, 44, 37]",<,730.0,2024-11-23 21:41:20.006441,9485,6,10,
347,348,1,10,"[56, 59, 49, 63, 80, 35, 58, 32]",<,737.0,2024-11-23 21:41:26.596355,9485,7,10,
348,349,1,2,"[44, 43, 79, 24, 48, 59, 59, 52]",>,1103.0,2024-11-23 21:46:45.172273,9485,5,10,
349,350,1,3,"[45, 43, 56, 61, 43, 67, 17, 60]",<,1644.0,2024-11-23 21:46:55.677372,9485,4,10,
350,351,1,4,"[42, 42, 45, 42, 27, 55, 82, 49]",>,1266.0,2024-11-23 21:47:04.737284,9485,3,10,
351,352,1,5,"[49, 53, 78, 51, 34, 61, 62, 28]",<,599.0,2024-11-23 21:47:11.006824,9485,6,10,
352,353,1,6,"[50, 62, 33, 49, 70, 31, 45, 76]",<,668.0,2024-11-23 21:47:17.578006,9485,6,10,
353,354,1,7,"[44, 47, 38, 74, 68, 39, 76, 46]",<,706.0,2024-11-23 21:47:24.008359,9485,7,10,
354,355,1,8,"[46, 49, 80, 26, 52, 64, 52, 39]",<,1040.0,2024-11-23 21:47:31.046987,9485,5,10,
355,356,1,9,"[61, 47, 41, 57, 79, 39, 45, 79]",<,745.0,2024-11-23 21:47:37.910068,9485,8,10,
356,357,1,10,"[61, 62, 37, 42, 39, 73, 33, 69]",<,566.0,2024-11-23 21:47:44.363531,9485,6,10,
357,358,1,2,"[45, 60, 66, 24, 23, 57, 36, 41]",>,1413.0,2024-11-23 21:48:29.668293,9485,1,20,
358,359,1,3,"[75, 26, 52, 64, 69, 72, 51, 63]",>,632.0,2024-11-23 21:48:36.376628,9485,9,20,
359,360,1,4,"[37, 32, 54, 69, 31, 21, 55, 53]",>,850.0,2024-11-23 21:48:43.477957,9485,1,20,
360,361,1,5,"[44, 47, 46, 53, 63, 58, 25, 16]",>,748.0,2024-11-23 21:48:50.072898,9485,1,20,
361,362,1,6,"[34, 40, 45, 33, 69, 73, 65, 57]",<,696.0,2024-11-23 21:48:56.767526,9485,6,20,
362,363,1,7,"[67, 45, 69, 53, 39, 88, 47, 64]",<,705.0,2024-11-23 21:49:03.140372,9485,9,20,
363,364,1,8,"[62, 77, 55, 41, 41, 24, 43, 49]",<,382.0,2024-11-23 21:49:09.161112,9485,4,20,
364,365,1,9,"[58, 34, 63, 64, 25, 30, 31, 47]",>,636.0,2024-11-23 21:49:15.601393,9485,1,20,
365,366,1,10,"[51, 57, 46, 19, 69, 61, 46, 67]",<,967.0,2024-11-23 21:49:22.329454,9485,6,20,
366,367,1,2,"[78, 25, 45, 49, 46, 46, 65, 38]",>,1965.0,2024-11-23 22:32:53.109644,633,4,20,
367,368,1,3,"[41, 24, 74, 64, 45, 48, 35, 53]",<,842.0,2024-11-23 22:32:59.859647,633,3,20,
368,369,1,4,"[30, 40, 42, 31, 15, 57, 47, 66]",<,1037.0,2024-11-23 22:33:13.865588,633,0,20,
369,370,1,5,"[18, 48, 59, 64, 56, 58, 30, 51]",>,878.0,2024-11-23 22:33:20.456974,633,3,20,
370,371,1,6,"[56, 49, 58, 19, 78, 49, 49, 50]",<,676.0,2024-11-23 22:33:26.978894,633,5,20,
371,372,1,7,"[25, 29, 47, 45, 43, 45, 77, 57]",<,290.0,2024-11-23 22:33:33.223591,633,2,20,
372,373,1,8,"[69, 44, 42, 30, 37, 58, 73, 63]",>,202.0,2024-11-23 22:33:39.117348,633,6,20,
373,374,1,9,"[31, 62, 45, 61, 43, 43, 26, 17]",<,664.0,2024-11-23 22:33:45.087785,633,0,20,
374,375,1,10,"[41, 30, 47, 50, 64, 22, 43, 71]",<,751.0,2024-11-23 22:33:51.812733,633,2,20,
375,376,1,2,"[49, 37, 37, 65, 67, 69, 80, 68]",>,1003.0,2024-11-23 22:37:42.767170,633,9,20,
376,377,1,3,"[46, 60, 71, 30, 68, 49, 30, 62]",>,573.0,2024-11-23 22:37:49.286151,633,6,20,
377,378,1,4,"[49, 79, 57, 57, 35, 41, 79, 51]",>,731.0,2024-11-23 22:37:55.852483,633,8,20,
378,379,1,5,"[47, 58, 44, 51, 76, 39, 20, 57]",>,731.0,2024-11-23 22:38:02.709881,633,4,20,
379,380,1,6,"[68, 57, 59, 46, 67, 30, 29, 36]",>,535.0,2024-11-23 22:38:08.994248,633,4,20,
380,381,1,7,"[37, 34, 71, 68, 55, 36, 59, 32]",>,516.0,2024-11-23 22:38:15.331540,633,4,20,
381,382,1,8,"[75, 50, 69, 44, 64, 40, 63, 27]",>,833.0,2024-11-23 22:38:21.926338,633,7,20,
382,383,1,9,"[56, 68, 63, 48, 28, 40, 51, 78]",>,27.0,2024-11-23 22:38:27.895906,633,7,20,
383,384,1,10,"[57, 67, 46, 71, 52, 19, 54, 42]",>,107.0,2024-11-23 22:38:33.462343,633,5,20,
384,385,1,2,"[33, 41, 32, 40, 62, 64, 70, 66]",<,1041.0,2024-11-23 22:46:35.606001,633,5,10,
385,386,1,3,"[62, 30, 70, 50, 32, 74, 47, 51]",>,4068.0,2024-11-23 22:46:46.442065,633,6,10,
386,387,1,4,"[33, 46, 73, 39, 34, 34, 57, 68]",>,718.0,2024-11-23 22:46:53.293986,633,3,10,
387,388,1,5,"[77, 65, 21, 48, 48, 54, 57, 46]",<,920.0,2024-11-23 22:47:00.233579,633,6,10,
388,389,1,6,"[60, 65, 60, 26, 30, 37, 63, 43]",>,1049.0,2024-11-23 22:47:07.488553,633,3,10,
389,390,1,7,"[48, 53, 36, 32, 37, 35, 81, 46]",>,949.0,2024-11-23 22:47:14.865404,633,2,10,
390,391,1,8,"[46, 62, 68, 56, 68, 27, 29, 52]",>,593.0,2024-11-23 22:47:25.357721,633,5,10,
391,392,1,9,"[57, 75, 30, 28, 51, 51, 32, 44]",>,635.0,2024-11-23 22:47:31.665475,633,2,10,
392,393,1,10,"[61, 28, 44, 28, 45, 49, 26, 71]",>,751.0,2024-11-23 22:47:38.236657,633,1,10,
393,394,1,2,"[49, 63, 14, 48, 42, 40, 67, 45]",<,1066.0,2024-11-23 22:49:22.422910,633,2,20,
394,395,1,3,"[23, 57, 54, 24, 63, 52, 35, 60]",<,472.0,2024-11-23 22:49:28.436862,633,2,20,
395,396,1,4,"[74, 71, 56, 54, 43, 26, 69, 55]",<,425.0,2024-11-23 22:49:34.206006,633,8,20,
396,397,1,5,"[64, 59, 38, 42, 31, 27, 72, 51]",<,557.0,2024-11-23 22:49:40.180244,633,3,20,
397,398,1,6,"[25, 45, 69, 40, 51, 46, 36, 16]",<,473.0,2024-11-23 22:49:46.039446,633,0,20,
398,399,1,7,"[27, 76, 38, 53, 55, 64, 39, 40]",<,777.0,2024-11-23 22:49:52.235865,633,4,20,
399,400,1,8,"[28, 52, 47, 75, 28, 63, 44, 47]",<,455.0,2024-11-23 22:49:58.070527,633,3,20,
400,401,1,9,"[16, 53, 64, 56, 64, 62, 58, 43]",<,620.0,2024-11-23 22:50:04.133692,633,6,20,
401,402,1,10,"[46, 17, 29, 36, 72, 38, 39, 51]",>,3119.0,2024-11-23 22:50:12.692145,633,0,20,
402,403,1,2,"[29, 40, 58, 62, 72, 32, 42, 33]",>,3249.0,2024-11-23 22:57:43.194055,633,2,20,
403,404,1,3,"[20, 61, 60, 52, 36, 59, 33, 63]",>,2135.0,2024-11-23 22:57:53.598144,633,3,20,
404,405,1,4,"[52, 50, 46, 59, 72, 16, 52, 45]",<,17540.0,2024-11-23 22:58:25.320618,633,4,20,
405,406,1,5,"[28, 48, 43, 74, 66, 57, 58, 34]",>,692.0,2024-11-23 22:58:31.862257,633,5,20,
406,407,1,6,"[55, 20, 36, 33, 28, 66, 56, 34]",>,989.0,2024-11-23 22:58:38.968596,633,0,20,
407,408,1,7,"[61, 48, 49, 78, 63, 24, 51, 42]",>,681.0,2024-11-23 22:58:45.551576,633,6,20,
408,409,1,8,"[41, 54, 55, 76, 80, 42, 38, 62]",>,633.0,2024-11-23 22:58:52.315797,633,8,20,
409,410,1,9,"[37, 29, 22, 52, 51, 67, 45, 65]",>,672.0,2024-11-23 22:58:58.966133,633,2,20,
410,411,1,10,"[43, 24, 53, 54, 56, 79, 41, 58]",>,926.0,2024-11-23 22:59:05.981487,633,5,20,
411,412,1,2,"[48, 67, 23, 65, 65, 71, 50, 43]",>,1546.0,2024-11-23 23:07:41.109768,633,7,20,
412,413,1,3,"[56, 55, 59, 29, 30, 45, 58, 76]",>,631.0,2024-11-23 23:07:47.699969,633,5,20,
413,414,1,4,"[49, 68, 33, 52, 29, 59, 43, 75]",>,160.0,2024-11-23 23:07:53.795414,633,5,20,
414,415,1,5,"[74, 63, 40, 62, 33, 34, 66, 44]",<,263.0,2024-11-23 23:07:59.655604,633,6,20,
415,416,1,6,"[49, 57, 14, 56, 42, 51, 69, 46]",>,822.0,2024-11-23 23:08:06.686889,633,3,20,
416,417,1,7,"[45, 48, 37, 76, 64, 31, 53, 30]",>,664.0,2024-11-23 23:08:13.114069,633,3,20,
417,418,1,8,"[29, 37, 63, 29, 66, 65, 41, 38]",>,618.0,2024-11-23 23:08:19.043728,633,2,20,
418,419,1,9,"[61, 72, 43, 39, 36, 27, 67, 47]",>,750.0,2024-11-23 23:08:25.346109,633,4,20,
419,420,1,10,"[70, 68, 50, 55, 44, 20, 41, 44]",>,947.0,2024-11-23 23:08:32.028037,633,4,20,
420,421,1,2,"[56, 66, 16, 54, 52, 36, 38, 34]",>,818.0,2024-11-23 23:09:41.297582,633,1,20,
421,422,1,3,"[86, 45, 53, 75, 43, 43, 46, 57]",>,442.0,2024-11-23 23:09:47.057307,633,8,20,
422,423,1,4,"[42, 48, 51, 26, 66, 59, 76, 40]",>,402.0,2024-11-23 23:09:52.823471,633,5,20,
423,424,1,5,"[48, 51, 37, 72, 63, 70, 49, 26]",>,714.0,2024-11-23 23:09:58.874871,633,6,20,
424,425,1,6,"[68, 49, 47, 61, 67, 35, 30, 27]",>,437.0,2024-11-23 23:10:04.554280,633,3,20,
425,426,1,7,"[61, 72, 67, 51, 40, 87, 43, 51]",>,294.0,2024-11-23 23:10:10.056928,633,9,20,
426,427,1,8,"[53, 49, 70, 55, 22, 76, 54, 53]",>,412.0,2024-11-23 23:10:15.747708,633,7,20,
427,428,1,9,"[21, 66, 42, 59, 66, 37, 59, 42]",>,691.0,2024-11-23 23:10:21.635705,633,4,20,
428,429,1,10,"[27, 39, 32, 57, 37, 65, 69, 58]",>,443.0,2024-11-23 23:10:27.395726,633,3,20,
429,430,1,2,"[43, 35, 52, 45, 60, 40, 86, 47]",>,1217.0,2024-11-25 19:02:27.380856,6894,5,10,
430,431,1,3,"[41, 47, 28, 36, 51, 49, 82, 50]",>,1118.0,2024-11-25 19:02:34.689601,6894,3,10,
431,432,1,4,"[58, 55, 78, 23, 53, 45, 56, 40]",>,880.0,2024-11-25 19:02:41.432135,6894,5,10,
432,433,1,5,"[27, 54, 37, 54, 24, 57, 71, 44]",>,4788.0,2024-11-25 19:02:54.201424,6894,2,10,
433,434,1,6,"[22, 66, 56, 52, 38, 51, 70, 37]",>,1441.0,2024-11-25 19:03:01.851703,6894,4,10,
434,435,1,7,"[44, 69, 33, 50, 60, 41, 22, 65]",>,1986.0,2024-11-25 19:03:09.715020,6894,3,10,
435,436,1,8,"[38, 46, 31, 76, 69, 50, 42, 64]",<,1591.0,2024-11-25 19:03:16.936835,6894,6,10,
436,437,1,9,"[81, 49, 38, 45, 44, 37, 43, 71]",<,980.0,2024-11-25 19:03:24.423432,6894,5,10,
437,438,1,10,"[60, 26, 35, 49, 28, 34, 72, 48]",>,1326.0,2024-11-25 19:03:31.826829,6894,1,10,
438,439,1,2,"[67, 59, 62, 20, 63, 38, 43, 56]",>,1160.0,2024-11-25 19:07:11.368754,5119,5,10,
439,440,1,3,"[28, 36, 50, 40, 34, 73, 63, 60]",>,933.0,2024-11-25 19:07:18.029174,5119,3,10,
440,441,1,4,"[30, 45, 80, 53, 37, 47, 63, 61]",<,1233.0,2024-11-25 19:07:24.981008,5119,6,10,
441,442,1,2,"[53, 22, 79, 55, 49, 58, 53, 39]",>,1359.0,2024-11-29 15:05:31.045713,7411,5,10,
442,443,1,3,"[21, 68, 63, 35, 60, 47, 58, 40]",<,1608.0,2024-11-29 15:05:43.545341,7411,4,10,
443,444,1,4,"[78, 29, 41, 57, 67, 45, 40, 59]",<,1548.0,2024-11-29 15:05:55.611665,7411,6,10,
444,445,1,5,"[58, 35, 68, 42, 34, 73, 36, 62]",<,2777.0,2024-11-29 15:06:06.411476,7411,5,10,
445,446,1,2,"[48, 25, 43, 61, 59, 66, 35, 71]",>,2662.0,2024-11-29 15:07:30.805646,6289,5,20,
446,447,1,3,"[50, 45, 56, 55, 45, 32, 24, 77]",<,1353.0,2024-11-29 15:07:38.214657,6289,3,20,
447,448,1,4,"[37, 87, 42, 57, 70, 51, 57, 47]",>,877.0,2024-11-29 15:07:45.183203,6289,8,20,
448,449,1,5,"[74, 67, 29, 55, 42, 63, 45, 33]",<,2922.0,2024-11-29 15:07:56.284094,6289,5,20,
449,450,1,6,"[46, 33, 57, 44, 76, 41, 75, 44]",>,25937.0,2024-11-29 15:08:36.651615,6289,6,20,
450,451,1,7,"[60, 31, 64, 51, 33, 68, 68, 73]",<,1477.0,2024-11-29 15:08:44.304135,6289,8,20,
451,452,1,8,"[46, 66, 51, 51, 55, 45, 91, 43]",<,1189.0,2024-11-29 15:08:51.331039,6289,8,20,
452,453,1,9,"[33, 57, 25, 74, 37, 44, 38, 60]",>,1736.0,2024-11-29 15:09:00.129829,6289,2,20,
453,454,1,10,"[58, 54, 42, 48, 70, 35, 17, 44]",<,1116.0,2024-11-29 15:09:07.140018,6289,2,20,
454,455,1,2,"[52, 44, 57, 29, 28, 13, 46, 59]",<,2187.0,2024-11-29 15:10:36.710342,1996,0,20,
455,456,1,3,"[67, 82, 62, 42, 47, 45, 48, 79]",>,44225.0,2024-11-29 15:11:34.961335,1996,9,20,
456,457,1,4,"[32, 18, 60, 63, 34, 54, 31, 36]",<,1760.0,2024-11-29 15:11:42.768999,1996,0,20,
457,458,1,5,"[50, 38, 49, 51, 24, 74, 40, 26]",<,2466.0,2024-11-29 15:11:53.046035,1996,1,20,
458,459,1,2,"[57, 83, 31, 54, 58, 34, 57, 58]",>,2002.0,2024-11-29 15:21:04.657891,8099,7,20,
459,460,1,2,"[69, 25, 49, 33, 49, 28, 64, 51]",<,3189.0,2024-11-29 15:21:40.614125,6858,2,20,
460,461,1,3,"[27, 27, 43, 65, 62, 32, 51, 61]",<,2653.0,2024-11-29 15:21:50.382254,6858,2,20,
461,462,1,4,"[67, 35, 34, 49, 31, 34, 59, 19]",>,1750.0,2024-11-29 15:21:59.166886,6858,0,20,
462,463,1,5,"[43, 36, 57, 46, 30, 25, 72, 59]",>,1095.0,2024-11-29 15:22:08.052870,6858,2,20,
463,464,1,6,"[55, 61, 43, 39, 85, 71, 51, 43]",>,835.0,2024-11-29 15:22:15.369880,6858,8,20,
464,465,1,7,"[54, 42, 30, 45, 75, 67, 74, 61]",<,1275.0,2024-11-29 15:22:22.809075,6858,8,20,
465,466,1,8,"[57, 74, 51, 19, 45, 47, 61, 54]",>,2908.0,2024-11-29 15:22:32.428462,6858,5,20,
466,467,1,9,"[72, 32, 59, 68, 54, 47, 50, 26]",>,11721.0,2024-11-29 15:22:53.659404,6858,5,20,
467,468,1,10,"[60, 48, 47, 52, 59, 82, 41, 83]",<,1284.0,2024-11-29 15:23:02.397011,6858,9,20,
468,469,1,2,"[72, 62, 68, 57, 55, 69, 35, 30]",>,1906.0,2024-11-29 15:35:50.262958,9062,8,20,
469,470,1,3,"[51, 68, 63, 26, 59, 62, 33, 70]",<,2679.0,2024-11-29 15:35:59.533644,9062,7,20,
470,471,1,4,"[33, 62, 19, 39, 32, 66, 32, 45]",<,1486.0,2024-11-29 15:36:07.739226,9062,0,20,
471,472,1,5,"[48, 46, 13, 56, 59, 46, 56, 28]",<,2544.0,2024-11-29 15:36:20.078825,9062,1,20,
472,473,1,6,"[51, 44, 44, 68, 37, 47, 50, 11]",<,2443.0,2024-11-29 15:36:29.051671,9062,1,20,
473,474,1,7,"[44, 71, 29, 73, 50, 63, 35, 51]",<,1160.0,2024-11-29 15:36:36.622430,9062,6,20,
474,475,1,8,"[50, 53, 53, 39, 16, 72, 47, 38]",<,1254.0,2024-11-29 15:36:44.299923,9062,2,20,
475,476,1,9,"[40, 50, 66, 64, 57, 70, 63, 22]",<,1182.0,2024-11-29 15:36:56.465844,9062,7,20,
476,477,1,10,"[15, 49, 54, 38, 19, 57, 53, 43]",<,2186.0,2024-11-29 15:37:05.593843,9062,0,20,
477,478,1,2,"[32, 53, 71, 35, 48, 36, 67, 66]",>,1977.0,2024-11-29 15:42:40.216320,6122,5,10,
478,479,1,3,"[36, 81, 38, 45, 62, 41, 45, 36]",>,1789.0,2024-11-29 15:42:49.482973,6122,3,10,
479,480,1,4,"[57, 55, 54, 77, 51, 63, 27, 32]",<,1425.0,2024-11-29 15:42:57.522466,6122,6,10,
480,481,1,5,"[38, 59, 65, 50, 47, 28, 43, 78]",<,1126.0,2024-11-29 15:43:08.797307,6122,5,10,
481,482,1,6,"[25, 39, 60, 73, 53, 65, 50, 67]",<,888.0,2024-11-29 15:43:16.305772,6122,7,10,
482,483,1,7,"[66, 41, 51, 44, 71, 48, 52, 19]",<,1739.0,2024-11-29 15:43:24.359674,6122,4,10,
483,484,1,8,"[32, 58, 43, 63, 33, 78, 46, 63]",<,954.0,2024-11-29 15:43:31.564037,6122,6,10,
484,485,1,9,"[60, 28, 39, 68, 49, 68, 42, 30]",<,1002.0,2024-11-29 15:43:48.097299,6122,3,10,
485,486,1,2,"[53, 52, 11, 51, 54, 46, 23, 38]",>,2842.0,2024-11-29 15:53:42.019351,4567,0,20,
486,487,1,3,"[55, 65, 88, 37, 56, 53, 46, 72]",<,2286.0,2024-11-29 15:53:51.207082,4567,9,20,
487,488,1,4,"[46, 53, 70, 26, 53, 32, 41, 71]",>,1560.0,2024-11-29 15:53:59.689870,4567,4,20,
488,489,1,2,"[52, 50, 46, 17, 53, 58, 57, 75]",>,1666.0,2024-11-29 15:56:38.162156,5270,5,10,
489,490,1,3,"[43, 36, 43, 75, 33, 63, 31, 60]",>,2451.0,2024-11-29 15:56:47.476971,5270,3,10,
490,491,1,4,"[62, 59, 25, 36, 47, 56, 76, 55]",<,2676.0,2024-11-29 15:56:56.616519,5270,6,10,
491,492,1,5,"[74, 43, 66, 28, 31, 55, 46, 41]",>,1360.0,2024-11-29 15:57:06.644457,5270,3,10,
492,493,1,6,"[35, 56, 47, 57, 40, 86, 42, 45]",>,875.0,2024-11-29 15:57:15.146013,5270,5,10,
493,494,1,7,"[29, 67, 51, 54, 28, 34, 68, 37]",<,4087.0,2024-11-29 15:57:25.867147,5270,2,10,
494,495,1,8,"[48, 51, 46, 80, 51, 28, 69, 43]",<,1480.0,2024-11-29 15:57:33.955537,5270,6,10,
495,496,1,9,"[58, 62, 47, 43, 29, 24, 61, 68]",>,1673.0,2024-11-29 15:57:42.159305,5270,4,10,
496,497,1,10,"[45, 43, 79, 37, 65, 70, 56, 37]",<,2046.0,2024-11-29 15:57:51.049277,5270,7,10,
497,498,1,2,"[34, 36, 64, 63, 27, 67, 56, 61]",>,1286.0,2024-11-29 16:07:52.341408,8613,5,10,
498,499,1,3,"[65, 49, 64, 67, 23, 35, 50, 39]",<,1928.0,2024-11-29 16:08:00.783702,8613,4,10,
499,500,1,4,"[57, 28, 57, 37, 42, 65, 52, 78]",<,1117.0,2024-11-29 16:08:08.400989,8613,6,10,
500,501,1,5,"[75, 31, 60, 33, 58, 50, 31, 46]",>,1761.0,2024-11-29 16:08:45.074604,8613,3,10,
501,502,1,6,"[60, 27, 29, 39, 54, 34, 52, 73]",>,11976.0,2024-11-29 16:09:09.708723,8613,2,10,
502,503,1,7,"[58, 47, 57, 60, 72, 57, 49, 16]",<,1569.0,2024-11-29 16:09:18.047892,8613,6,10,
503,504,1,8,"[41, 43, 80, 67, 42, 58, 65, 36]",<,1753.0,2024-11-29 16:09:26.063298,8613,7,10,
504,505,1,2,"[56, 47, 32, 32, 60, 81, 46, 54]",>,1845.0,2024-11-29 16:14:43.131160,8038,5,10,
505,506,1,3,"[53, 40, 36, 46, 44, 25, 72, 68]",>,53100.0,2024-11-29 16:15:51.833154,8038,3,10,
506,507,1,4,"[41, 41, 50, 84, 44, 45, 36, 67]",>,2307.0,2024-11-29 16:16:01.370787,8038,5,10,
507,508,1,2,"[79, 40, 70, 46, 37, 68, 60, 72]",>,1752.0,2024-11-29 16:23:10.023876,7336,9,20,
508,509,1,3,"[40, 41, 58, 56, 61, 24, 27, 21]",>,1824.0,2024-11-29 16:23:18.579404,7336,0,20,
509,510,1,4,"[48, 73, 51, 58, 60, 44, 82, 32]",<,1846.0,2024-11-29 16:23:27.180027,7336,8,20,
510,511,1,5,"[45, 81, 23, 47, 52, 54, 56, 50]",<,1129.0,2024-11-29 16:26:17.696627,7336,5,20,
511,512,1,6,"[62, 66, 24, 43, 41, 74, 49, 57]",<,933.0,2024-11-29 16:26:25.220571,7336,6,20,
512,513,1,7,"[33, 40, 39, 65, 70, 75, 44, 50]",<,922.0,2024-11-29 16:26:32.408288,7336,6,20,
513,514,1,8,"[79, 49, 32, 33, 40, 59, 40, 60]",>,1122.0,2024-11-29 16:26:39.802113,7336,4,20,
514,515,1,2,"[66, 56, 63, 58, 58, 36, 54, 17]",>,1450.0,2024-11-29 17:55:44.701931,1965,5,10,
515,516,1,3,"[48, 65, 48, 12, 51, 60, 47, 53]",>,1616.0,2024-11-29 17:55:53.040444,1965,3,10,
516,517,1,4,"[71, 54, 43, 43, 42, 70, 24, 61]",>,981.0,2024-11-29 17:56:00.681169,1965,5,10,
517,518,1,5,"[42, 51, 80, 41, 42, 27, 32, 53]",>,1715.0,2024-11-29 17:56:32.660628,1965,2,10,
518,519,1,6,"[30, 64, 61, 78, 59, 42, 36, 46]",<,1465.0,2024-11-29 17:56:40.735029,1965,6,10,
519,520,1,7,"[49, 55, 66, 27, 41, 76, 39, 39]",>,672.0,2024-11-29 17:56:47.959411,1965,4,10,
520,521,1,8,"[23, 39, 60, 32, 36, 53, 71, 54]",>,1014.0,2024-11-29 17:56:54.894360,1965,2,10,
521,522,1,9,"[34, 39, 41, 78, 57, 69, 58, 40]",<,980.0,2024-11-29 18:05:22.124148,1965,6,10,
522,523,1,10,"[31, 46, 63, 55, 54, 48, 80, 31]",>,747.0,2024-11-29 18:05:29.479161,1965,5,10,
523,524,1,2,"[61, 33, 65, 20, 57, 34, 55, 43]",>,624.0,2024-11-29 18:07:55.915689,1965,2,20,
524,525,1,3,"[22, 43, 60, 58, 59, 57, 56, 77]",<,826.0,2024-11-29 18:08:03.628569,1965,7,20,
525,526,1,4,"[59, 17, 54, 40, 38, 62, 66, 48]",>,2255.0,2024-11-29 18:08:14.649293,1965,3,20,
526,527,1,5,"[37, 44, 53, 40, 10, 54, 30, 60]",>,27815.0,2024-11-29 18:09:02.543530,1965,0,20,
527,528,1,6,"[71, 43, 43, 64, 21, 40, 61, 49]",<,1349.0,2024-11-29 18:09:10.458435,1965,4,20,
528,529,1,7,"[53, 45, 84, 51, 45, 30, 41, 59]",>,1698.0,2024-11-29 18:09:18.670191,1965,5,20,
529,530,1,8,"[39, 83, 51, 77, 49, 40, 51, 58]",<,1209.0,2024-11-29 18:09:26.384255,1965,8,20,
530,531,1,9,"[47, 19, 33, 62, 48, 68, 60, 47]",<,1277.0,2024-11-29 18:09:34.919031,1965,3,20,
531,532,1,10,"[44, 77, 37, 52, 56, 67, 57, 26]",>,1044.0,2024-11-29 18:09:42.401469,1965,6,20,
532,533,1,2,"[55, 40, 62, 36, 30, 57, 80, 48]",>,12371.0,2024-11-29 19:14:24.433019,5276,5,10,
533,534,1,3,"[63, 32, 62, 74, 40, 34, 45, 34]",>,87238.0,2024-11-29 19:16:06.398060,5276,3,10,
534,535,1,4,"[35, 30, 58, 55, 53, 36, 75, 66]",>,2214.0,2024-11-29 19:16:23.608689,5276,5,10,
535,536,1,5,"[70, 39, 24, 68, 34, 39, 48, 46]",>,1202.0,2024-11-29 19:16:43.309687,5276,2,10,
536,537,1,6,"[42, 64, 42, 59, 53, 67, 68, 21]",<,1331.0,2024-11-29 19:17:12.771551,5276,6,10,
537,538,1,7,"[30, 68, 60, 28, 35, 51, 53, 67]",<,700.0,2024-11-29 19:17:20.065714,5276,4,10,
538,539,1,8,"[28, 56, 32, 59, 61, 63, 43, 74]",<,1245.0,2024-11-29 19:17:27.975879,5276,6,10,
539,540,1,9,"[19, 41, 72, 32, 58, 45, 53, 48]",>,1363.0,2024-11-29 19:18:28.989419,5276,2,10,
540,541,1,10,"[60, 55, 52, 76, 50, 62, 20, 57]",<,873.0,2024-11-29 19:18:36.641486,5276,7,10,
541,542,1,2,"[35, 45, 40, 38, 78, 42, 59, 71]",>,2007.0,2024-11-29 19:20:06.987543,5097,5,10,
542,543,1,3,"[72, 60, 60, 43, 41, 42, 46, 20]",>,1296.0,2024-11-29 19:20:24.623554,5097,3,10,
543,544,1,4,"[61, 52, 44, 55, 41, 81, 25, 49]",>,1836.0,2024-11-29 19:20:33.160049,5097,5,10,
544,545,1,5,"[47, 62, 62, 63, 54, 49, 41, 14]",<,1212.0,2024-11-29 19:21:44.577886,5097,4,10,
545,546,1,6,"[32, 59, 65, 31, 56, 38, 65, 70]",<,948.0,2024-11-29 19:21:52.033010,5097,6,10,
546,547,1,7,"[26, 42, 73, 45, 50, 62, 71, 63]",<,1424.0,2024-11-29 19:22:00.719146,5097,7,10,
547,548,1,8,"[62, 75, 53, 30, 57, 65, 36, 38]",<,3292.0,2024-11-29 19:22:10.666851,5097,6,10,
548,549,1,9,"[49, 48, 21, 56, 31, 35, 61, 67]",>,2099.0,2024-11-29 19:22:48.286043,5097,2,10,
549,550,1,10,"[62, 48, 78, 53, 31, 35, 39, 38]",>,10706.0,2024-11-29 19:23:07.711044,5097,3,10,
550,551,1,2,"[42, 48, 37, 38, 57, 65, 53, 12]",>,1029.0,2024-11-29 19:29:15.714633,7411,1,20,
551,552,1,3,"[46, 39, 45, 23, 52, 46, 78, 63]",>,1161.0,2024-11-29 19:29:23.709094,7411,4,20,
552,553,1,4,"[33, 81, 59, 79, 64, 49, 57, 50]",<,982.0,2024-11-29 19:29:31.147782,7411,9,20,
553,554,1,2,"[35, 35, 33, 70, 58, 58, 72, 47]",>,2241.0,2024-12-15 21:00:50.112104,7215,5,10,
554,555,1,3,"[49, 36, 53, 27, 74, 33, 61, 59]",<,860.0,2024-12-15 21:00:57.531414,7215,4,10,
555,556,1,4,"[71, 73, 41, 52, 29, 62, 51, 37]",<,1550.0,2024-12-15 21:01:05.663207,7215,6,10,
556,557,1,5,"[53, 63, 40, 24, 54, 73, 41, 36]",>,773.0,2024-12-15 21:01:14.870034,7215,3,10,
557,558,1,6,"[71, 21, 51, 43, 36, 33, 54, 59]",>,1716.0,2024-12-15 21:01:24.293043,7215,2,10,
558,559,1,7,"[43, 49, 48, 37, 76, 62, 28, 65]",>,4791.0,2024-12-15 21:01:35.686855,7215,5,10,
559,560,1,8,"[43, 51, 31, 38, 71, 77, 60, 61]",<,1667.0,2024-12-15 21:01:44.060476,7215,7,10,
560,561,1,9,"[65, 47, 44, 18, 44, 68, 40, 58]",<,1070.0,2024-12-15 21:01:52.314436,7215,3,10,
561,562,1,10,"[47, 27, 66, 44, 65, 51, 77, 39]",>,1233.0,2024-12-15 21:02:00.210499,7215,6,10,
562,563,1,2,"[32, 62, 62, 62, 43, 57, 24, 66]",>,7440.0,2024-12-18 23:23:16.313408,489,5,20,
563,564,1,2,"[76, 42, 60, 64, 68, 74, 58, 30]",>,1066.0,2024-12-19 20:54:41.357434,8129,9,20,
564,565,1,3,"[69, 54, 45, 51, 26, 42, 72, 33]",>,243363.0,2024-12-19 20:58:55.554697,8129,4,20,
565,566,1,4,"[57, 54, 29, 80, 44, 53, 63, 36]",<,959.0,2024-12-19 20:59:03.015627,8129,6,20,
566,567,1,5,"[23, 32, 21, 54, 45, 68, 36, 49]",<,1438.0,2024-12-19 20:59:11.875085,8129,0,20,
567,568,1,6,"[38, 60, 28, 56, 72, 56, 47, 27]",>,2819.0,2024-12-19 20:59:21.264832,8129,3,20,
568,569,1,7,"[60, 63, 65, 38, 50, 20, 53, 67]",<,1972.0,2024-12-19 20:59:29.670627,8129,6,20,
569,570,1,8,"[70, 35, 44, 57, 44, 63, 27, 28]",>,1341.0,2024-12-19 20:59:38.009605,8129,2,20,
570,571,1,9,"[39, 52, 23, 74, 42, 56, 42, 64]",<,4964.0,2024-12-19 20:59:53.963456,8129,4,20,
571,572,1,10,"[43, 26, 45, 78, 66, 43, 50, 57]",>,1490.0,2024-12-19 21:00:02.765022,8129,5,20,
572,573,1,2,"[53, 65, 71, 40, 45, 44, 24, 66]",>,38019.0,2024-12-19 21:20:06.722554,3211,5,10,
573,574,1,3,"[27, 53, 61, 51, 58, 21, 65, 56]",<,1172.0,2024-12-19 21:20:14.800854,3211,4,10,
574,575,1,2,"[63, 58, 25, 32, 60, 30, 61, 55]",<,1256.0,2024-12-20 14:13:50.368454,5571,3,20,
575,576,1,3,"[42, 50, 20, 51, 74, 52, 60, 35]",<,662.0,2024-12-20 14:13:57.083596,5571,3,20,
576,577,1,2,"[73, 59, 41, 61, 53, 33, 26, 62]",<,1030.0,2024-12-20 14:14:50.220882,1505,5,10,
577,578,1,3,"[42, 59, 67, 33, 47, 69, 30, 69]",>,2436.0,2024-12-20 14:14:51.632066,1505,6,10,
578,579,1,2,"[44, 46, 46, 23, 48, 65, 74, 62]",<,1453.0,2024-12-20 14:15:06.988907,5543,5,10,
579,580,1,2,"[31, 66, 44, 65, 65, 64, 45, 28]",>,847.0,2024-12-20 14:27:50.565050,7904,5,10,
580,581,1,2,"[46, 73, 72, 30, 51, 55, 31, 50]",<,1124.0,2024-12-20 14:35:07.651610,9511,5,10,
581,582,1,2,"[41, 33, 26, 27, 60, 37, 71, 33]",<,780.0,2024-12-20 14:36:06.075279,9511,0,20,
582,583,1,2,"[48, 36, 81, 59, 64, 49, 35, 36]",<,618.0,2024-12-20 14:36:23.373200,9511,5,10,
583,584,1,2,"[25, 44, 56, 42, 45, 65, 34, 73]",<,1781.0,2024-12-20 14:36:41.056666,9511,3,20,
584,585,1,2,"[64, 53, 47, 76, 61, 25, 40, 42]",<,1271.0,2024-12-20 14:38:36.901054,9511,5,10,
585,586,1,2,"[77, 37, 61, 58, 63, 39, 38, 35]",<,3594.0,2024-12-20 14:39:57.234075,313,5,10,
586,587,1,2,"[57, 43, 83, 43, 41, 47, 67, 35]",<,1158.0,2024-12-20 14:43:04.028357,923,6,20,
587,588,1,2,"[62, 67, 46, 31, 76, 55, 33, 62]",<,775.0,2024-12-20 14:51:03.211160,923,7,20,
588,589,1,2,"[50, 73, 56, 76, 47, 30, 46, 70]",<,1266.0,2024-12-20 15:25:36.627023,3322,8,20,
589,590,1,2,"[43, 65, 26, 53, 74, 36, 38, 57]",<,694.0,2024-12-20 15:25:51.389799,3322,4,20,
590,591,1,2,"[48, 31, 59, 73, 56, 67, 39, 75]",>,3477.0,2024-12-20 15:26:15.690150,6806,8,20,
591,592,1,2,"[31, 39, 79, 35, 63, 55, 60, 46]",<,1087.0,2024-12-20 15:26:59.783185,9515,5,10,
592,593,1,3,"[67, 42, 50, 23, 47, 50, 66, 71]",<,1142.0,2024-12-20 15:27:09.703727,9515,6,10,
593,594,1,4,"[67, 32, 43, 65, 55, 38, 60, 24]",>,6714.0,2024-12-20 15:28:08.783873,9515,3,10,
594,595,1,2,"[20, 50, 49, 40, 65, 73, 56, 55]",<,862.0,2024-12-20 15:32:00.344579,1974,5,10,
595,596,1,2,"[50, 38, 69, 37, 47, 60, 24, 67]",<,7621.0,2024-12-20 16:09:14.516474,8761,4,20,
596,597,1,3,"[51, 37, 64, 24, 57, 33, 44, 18]",<,980.0,2024-12-20 16:09:23.880760,8761,0,20,
597,598,1,2,"[44, 34, 37, 69, 35, 77, 41, 47]",<,966.0,2024-12-20 16:14:15.747183,8761,3,20,
598,599,1,3,"[71, 44, 68, 63, 29, 56, 31, 54]",<,2811.0,2024-12-20 16:14:32.168161,8761,6,20,
599,600,1,4,"[36, 65, 38, 21, 54, 66, 53, 35]",<,45946.0,2024-12-20 16:15:32.291814,8761,2,20,
600,601,1,2,"[67, 37, 64, 66, 59, 31, 29, 55]",<,1410.0,2024-12-20 16:41:03.503568,4971,5,10,
601,602,1,2,"[37, 27, 57, 33, 69, 38, 48, 19]",<,607.0,2024-12-20 16:44:41.181206,7739,0,20,
602,603,1,3,"[53, 53, 63, 37, 22, 64, 51, 25]",<,492.0,2024-12-20 16:44:47.755643,7739,2,20,
603,604,1,4,"[28, 47, 40, 30, 43, 51, 78, 35]",<,547.0,2024-12-20 16:44:54.323688,7739,1,20,
604,605,1,2,"[30, 41, 68, 63, 33, 52, 73, 48]",<,1087.0,2024-12-20 16:47:29.110595,5962,5,10,
605,606,1,3,"[50, 58, 71, 41, 68, 59, 47, 22]",>,9646.0,2024-12-20 16:47:49.990008,5962,6,10,
606,607,1,4,"[54, 43, 64, 51, 47, 55, 12, 58]",<,953.0,2024-12-20 16:48:00.941227,5962,3,10,
607,608,1,2,"[28, 63, 71, 40, 32, 48, 61, 65]",<,3879.0,2024-12-20 16:50:50.060765,7086,5,10,
608,609,1,3,"[52, 85, 32, 45, 49, 48, 64, 41]",>,556.0,2024-12-20 16:51:03.863469,7086,6,10,
609,610,1,4,"[29, 58, 78, 44, 51, 39, 31, 54]",<,777.0,2024-12-20 16:51:18.368906,7086,3,10,
610,611,1,2,"[77, 47, 59, 24, 52, 61, 38, 50]",>,1511.0,2024-12-20 17:13:01.747215,4498,5,10,
611,612,1,3,"[41, 62, 59, 50, 27, 32, 40, 73]",>,952.0,2024-12-20 17:15:18.573332,4498,3,10,
612,613,1,2,"[24, 47, 62, 46, 74, 41, 37, 61]",>,1515.0,2024-12-20 17:17:14.350026,4834,5,10,
613,614,1,3,"[57, 55, 26, 48, 54, 36, 52, 80]",<,790.0,2024-12-20 17:17:53.951938,4834,4,10,
614,615,1,4,"[63, 53, 24, 40, 60, 46, 71, 35]",>,33691.0,2024-12-20 17:18:45.225696,4834,3,10,
615,616,1,2,"[31, 68, 37, 53, 51, 40, 36, 76]",<,3200.0,2024-12-20 17:21:25.697775,8253,5,10,
616,617,1,2,"[38, 53, 60, 57, 49, 16, 50, 69]",<,1242.0,2024-12-20 17:33:50.577855,742,5,20,
617,618,1,3,"[44, 60, 48, 49, 23, 47, 80, 57]",>,1469.0,2024-12-20 17:34:01.779813,742,3,20,
618,619,1,4,"[54, 80, 57, 35, 45, 47, 32, 34]",<,8556.0,2024-12-20 17:34:19.957958,742,0,20,
619,620,1,2,"[49, 26, 49, 66, 44, 41, 53, 80]",<,587.0,2024-12-20 17:38:37.108575,9942,3,20,
620,621,1,3,"[40, 53, 24, 59, 55, 75, 34, 44]",<,548.0,2024-12-20 17:38:43.635379,9942,6,20,
621,622,1,4,"[65, 60, 59, 30, 45, 75, 52, 30]",<,814.0,2024-12-20 17:38:50.460495,9942,7,20,
622,623,1,2,"[59, 69, 51, 18, 53, 34, 48, 60]",<,636.0,2024-12-20 17:40:03.463143,7947,5,10,
623,624,1,3,"[39, 60, 45, 52, 75, 26, 44, 67]",<,471.0,2024-12-20 17:40:10.146623,7947,6,10,
624,625,1,4,"[45, 48, 62, 33, 48, 48, 46, 86]",<,569.0,2024-12-20 17:40:16.628867,7947,4,10,
625,626,1,2,"[65, 29, 34, 71, 41, 49, 38, 65]",>,628.0,2024-12-21 02:12:49.611292,4156,5,10,
626,627,1,3,"[36, 53, 46, 23, 70, 51, 66, 63]",>,523.0,2024-12-21 02:12:56.087736,4156,3,10,
627,628,1,4,"[64, 50, 31, 40, 37, 34, 77, 51]",<,7845.0,2024-12-21 02:13:12.107118,4156,6,10,
628,629,1,2,"[57, 45, 26, 54, 49, 76, 28, 49]",>,616.0,2024-12-21 15:50:46.089836,4433,5,20,
629,630,1,3,"[43, 61, 48, 27, 53, 80, 58, 38]",>,580.0,2024-12-21 15:50:52.692004,4433,6,20,
630,631,1,4,"[73, 33, 50, 35, 67, 35, 62, 61]",<,973.0,2024-12-21 15:50:59.557101,4433,3,20,
631,632,1,5,"[47, 68, 65, 20, 57, 34, 43, 50]",>,1380.0,2024-12-21 15:51:11.581952,4433,6,20,
632,633,1,6,"[31, 60, 43, 85, 50, 40, 54, 53]",<,961.0,2024-12-21 15:51:18.491855,4433,8,20,
633,634,1,7,"[47, 35, 70, 64, 55, 42, 49, 86]",<,487.0,2024-12-21 15:51:25.005227,4433,5,20,
634,635,1,8,"[78, 37, 62, 47, 34, 62, 55, 33]",<,573.0,2024-12-21 15:51:31.567286,4433,4,20,
635,636,1,9,"[71, 18, 63, 52, 43, 40, 48, 57]",>,2416.0,2024-12-21 15:51:44.358122,4433,1,20,
636,637,1,10,"[64, 54, 19, 35, 59, 35, 56, 30]",<,653.0,2024-12-21 15:51:51.925612,4433,0,20,
637,638,1,2,"[45, 87, 57, 42, 49, 52, 63, 77]",<,938.0,2024-12-21 15:57:35.347392,9755,2,20,
638,639,1,3,"[61, 45, 56, 65, 14, 49, 37, 41]",<,438.0,2024-12-21 15:57:41.823932,9755,4,20,
639,640,1,4,"[33, 42, 68, 63, 21, 52, 49, 64]",<,756.0,2024-12-21 15:57:48.722940,9755,8,20,
640,641,1,5,"[72, 54, 43, 33, 44, 53, 77, 72]",<,461.0,2024-12-21 15:57:56.753735,9755,7,20,
641,642,1,6,"[37, 32, 54, 82, 57, 48, 67, 55]",<,457.0,2024-12-21 15:58:03.252888,9755,2,20,
642,643,1,7,"[30, 45, 39, 55, 25, 40, 61, 73]",<,824.0,2024-12-21 15:58:10.130069,9755,2,20,
643,644,1,8,"[63, 44, 37, 25, 33, 40, 73, 53]",<,487.0,2024-12-21 15:58:16.551778,9755,6,20,
644,645,1,2,"[74, 69, 62, 57, 71, 24, 52, 63]",<,1365.0,2024-12-21 16:01:40.883080,1997,8,20,
645,646,1,3,"[49, 35, 67, 60, 51, 87, 55, 44]",<,551.0,2024-12-21 16:01:47.541808,1997,0,20,
646,647,1,4,"[24, 20, 29, 36, 48, 52, 53, 66]",<,695.0,2024-12-21 16:01:54.177643,1997,9,20,
647,648,1,2,"[41, 33, 54, 62, 54, 33, 37, 78]",<,868.0,2024-12-21 16:09:40.514457,7962,5,10,
648,649,1,3,"[44, 56, 57, 32, 42, 44, 85, 48]",<,491.0,2024-12-21 16:09:47.021261,7962,6,10,
649,650,1,4,"[51, 22, 41, 72, 69, 46, 61, 54]",<,518.0,2024-12-21 16:09:53.423537,7962,4,10,
650,651,1,5,"[40, 63, 55, 16, 57, 61, 60, 40]",<,425.0,2024-12-21 16:09:59.674761,7962,7,10,
651,652,1,6,"[45, 33, 63, 35, 80, 66, 53, 57]",<,1050.0,2024-12-21 16:10:08.573697,7962,5,10,
652,653,1,7,"[29, 65, 45, 39, 58, 60, 37, 75]",<,613.0,2024-12-21 16:10:15.596729,7962,6,10,
653,654,1,8,"[57, 51, 26, 47, 54, 41, 82, 58]",<,772.0,2024-12-21 16:10:22.304482,7962,8,10,
654,655,1,9,"[46, 68, 59, 26, 81, 58, 50, 60]",<,1322.0,2024-12-21 16:10:29.493797,7962,5,10,
655,656,1,10,"[47, 49, 38, 82, 51, 66, 34, 41]",<,517.0,2024-12-21 16:10:35.920529,7962,7,10,
656,657,1,11,"[40, 75, 53, 56, 77, 33, 41, 57]",<,82391.0,2024-12-21 16:12:06.438450,7962,6,10,
657,658,1,12,"[38, 48, 40, 68, 83, 47, 38, 54]",<,898.0,2024-12-21 16:12:20.169613,7962,8,10,
658,659,1,13,"[68, 39, 64, 38, 68, 43, 48, 80]",<,519.0,2024-12-21 16:12:26.795139,7962,9,10,
659,660,1,14,"[91, 53, 39, 64, 46, 52, 56, 71]",<,776.0,2024-12-21 16:12:33.525373,7962,7,10,
660,661,1,15,"[30, 50, 74, 52, 33, 71, 60, 62]",<,987.0,2024-12-21 16:12:40.532522,7962,5,10,
661,662,1,2,"[41, 63, 77, 40, 35, 31, 44, 61]",<,1413.0,2024-12-21 16:14:53.674553,6891,5,10,
662,663,1,3,"[57, 70, 50, 75, 39, 34, 31, 52]",<,523.0,2024-12-21 16:15:00.196596,6891,6,10,
663,664,1,4,"[32, 54, 72, 68, 58, 39, 61, 32]",<,493.0,2024-12-21 16:15:06.727100,6891,4,10,
664,665,1,5,"[73, 38, 51, 67, 36, 48, 25, 54]",<,462.0,2024-12-21 16:15:13.065460,6891,7,10,
665,666,1,2,"[20, 61, 53, 72, 67, 51, 47, 45]",>,2317.0,2024-12-21 16:18:32.995044,4700,0,20,
666,667,1,3,"[49, 60, 30, 26, 22, 65, 44, 32]",>,1720.0,2024-12-21 16:18:43.188945,4700,4,20,
667,668,1,4,"[71, 30, 70, 39, 39, 61, 37, 45]",>,642.0,2024-12-21 16:18:54.730654,4700,7,20,
668,669,1,5,"[62, 49, 39, 40, 39, 48, 79, 76]",>,523.0,2024-12-21 16:19:03.019508,4700,8,20,
669,670,1,2,"[48, 67, 32, 40, 45, 29, 57, 74]",<,697.0,2024-12-21 16:20:05.060273,4700,5,10,
670,671,1,3,"[51, 40, 48, 54, 42, 27, 68, 78]",<,491.0,2024-12-21 16:20:11.481577,4700,6,10,
671,672,1,4,"[25, 59, 60, 67, 71, 34, 45, 55]",<,423.0,2024-12-21 16:20:17.764519,4700,4,10,
672,673,1,5,"[57, 51, 41, 49, 17, 74, 53, 50]",<,1028.0,2024-12-21 16:20:24.840660,4700,7,10,
673,674,1,6,"[58, 50, 42, 36, 47, 43, 75, 81]",<,5529.0,2024-12-21 16:20:40.841324,4700,5,10,
674,675,1,7,"[45, 67, 44, 29, 65, 39, 45, 74]",<,485.0,2024-12-21 16:20:47.268974,4700,6,10,
675,676,1,8,"[37, 59, 53, 27, 42, 76, 57, 65]",<,3475.0,2024-12-21 16:20:56.930063,4700,8,10,
676,677,1,9,"[77, 48, 32, 45, 79, 63, 51, 53]",<,928.0,2024-12-21 16:21:05.031947,4700,5,10,
677,678,1,10,"[56, 37, 64, 31, 50, 33, 67, 70]",<,1006.0,2024-12-21 16:21:12.173292,4700,7,10,
678,679,1,11,"[79, 55, 45, 47, 62, 36, 73, 35]",<,1434.0,2024-12-21 16:21:29.171143,4700,6,10,
679,680,1,12,"[65, 53, 52, 68, 17, 50, 48, 63]",<,5468.0,2024-12-21 16:21:40.538773,4700,8,10,
680,681,1,13,"[35, 68, 42, 42, 79, 52, 73, 57]",>,988.0,2024-12-21 16:21:47.550056,4700,4,10,
681,682,1,14,"[46, 55, 78, 20, 42, 49, 54, 48]",<,802.0,2024-12-21 16:21:54.230919,4700,4,10,
682,683,1,15,"[63, 48, 50, 81, 34, 37, 35, 44]",<,535.0,2024-12-21 16:22:00.654368,4700,9,10,
683,684,1,16,"[72, 39, 48, 54, 40, 82, 63, 74]",>,2525.0,2024-12-21 16:22:14.014200,4700,4,10,
684,685,1,17,"[34, 75, 41, 59, 66, 29, 44, 44]",>,854.0,2024-12-21 16:22:21.896167,4700,3,10,
685,686,1,18,"[23, 52, 44, 45, 65, 43, 37, 75]",>,468.0,2024-12-21 16:22:28.384492,4700,6,10,
686,687,1,19,"[52, 46, 75, 57, 32, 74, 44, 36]",<,449.0,2024-12-21 16:22:34.703807,4700,5,10,
687,688,1,20,"[41, 29, 33, 61, 73, 53, 68, 50]",<,471.0,2024-12-21 16:22:41.820018,4700,7,10,
688,689,1,2,"[52, 34, 68, 50, 59, 24, 38, 67]",<,928.0,2024-12-21 16:50:36.556891,8455,5,10,
689,690,1,3,"[55, 45, 68, 54, 31, 75, 51, 29]",<,823.0,2024-12-21 16:50:47.760812,8455,6,10,
690,691,1,4,"[73, 56, 50, 47, 53, 31, 74, 32]",<,516.0,2024-12-21 16:50:54.183595,8455,4,10,
691,692,1,5,"[53, 38, 72, 38, 54, 39, 70, 28]",<,1268.0,2024-12-21 16:50:54.928845,8455,7,10,
692,693,1,6,"[38, 59, 56, 31, 46, 66, 53, 83]",>,564.0,2024-12-21 16:51:05.357859,8455,3,10,
693,694,1,7,"[44, 41, 25, 54, 64, 57, 30, 69]",>,760.0,2024-12-21 16:51:12.093988,8455,5,10,
694,695,1,8,"[34, 72, 76, 46, 50, 35, 55, 40]",>,666.0,2024-12-21 16:51:18.716587,8455,3,10,
695,696,1,9,"[65, 36, 56, 42, 17, 62, 56, 50]",>,1524.0,2024-12-21 16:51:19.584440,8455,2,10,
696,697,1,2,"[44, 78, 62, 48, 24, 49, 61, 42]",<,772.0,2024-12-21 16:51:58.891598,8455,6,20,
697,698,1,2,"[82, 52, 30, 52, 59, 65, 67, 41]",<,482.0,2024-12-21 16:52:28.148364,8455,2,20,
698,699,1,2,"[58, 37, 57, 64, 26, 29, 25, 32]",>,688.0,2024-12-21 16:54:11.787482,2037,2,20,
699,700,1,2,"[51, 52, 35, 54, 57, 14, 66, 55]",<,741.0,2024-12-21 16:55:59.149784,5392,6,20,
700,701,1,3,"[58, 24, 41, 50, 43, 77, 61, 62]",<,537.0,2024-12-21 16:56:05.610971,5392,6,20,
701,702,1,4,"[57, 53, 69, 23, 47, 74, 40, 53]",<,604.0,2024-12-21 16:56:12.165408,5392,9,20,
702,703,1,2,"[31, 24, 39, 40, 54, 20, 53, 67]",<,900.0,2024-12-21 16:57:55.440873,63,6,20,
703,704,1,3,"[53, 19, 38, 68, 65, 58, 55, 60]",>,1258.0,2024-12-21 16:58:07.246402,63,7,20,
704,705,1,4,"[56, 42, 89, 54, 39, 53, 41, 58]",>,653.0,2024-12-21 16:58:13.987298,63,4,20,
705,706,1,5,"[41, 59, 37, 36, 76, 54, 28, 61]",>,542.0,2024-12-21 16:58:20.406393,63,2,20,
706,707,1,2,"[53, 35, 23, 49, 40, 68, 70, 54]",>,783.0,2024-12-21 17:02:31.724608,8735,3,20,
707,708,1,3,"[34, 39, 26, 46, 66, 54, 45, 74]",>,789.0,2024-12-21 17:02:38.786689,8735,1,20,
708,709,1,4,"[74, 36, 42, 30, 35, 64, 39, 32]",>,689.0,2024-12-21 17:02:47.266127,8735,2,20,
709,710,1,5,"[13, 66, 52, 43, 52, 42, 59, 41]",<,999.0,2024-12-21 17:02:54.340277,8735,5,20,
710,711,1,6,"[64, 36, 43, 29, 77, 60, 43, 56]",>,675.0,2024-12-21 17:03:02.574116,8735,6,20,
711,712,1,7,"[21, 34, 65, 60, 66, 55, 56, 59]",>,734.0,2024-12-21 17:03:10.134337,8735,1,20,
712,713,1,8,"[22, 44, 54, 23, 46, 71, 45, 47]",>,2977.0,2024-12-21 17:03:21.495987,8735,3,20,
713,714,1,9,"[45, 55, 39, 14, 55, 65, 49, 62]",>,994.0,2024-12-21 17:03:29.324831,8735,0,20,
714,715,1,2,"[61, 45, 45, 75, 34, 68, 30, 50]",<,5427.0,2024-12-21 17:05:07.705633,2081,3,20,
715,716,1,3,"[45, 27, 23, 69, 56, 49, 61, 54]",<,595.0,2024-12-21 17:05:14.455535,2081,5,20,
716,717,1,2,"[47, 73, 21, 42, 38, 52, 46, 65]",<,1323.0,2024-12-21 17:05:36.107849,6513,5,20,
717,718,1,3,"[44, 66, 36, 29, 66, 37, 64, 66]",<,439.0,2024-12-21 17:05:42.493656,6513,3,20,
718,719,1,4,"[24, 55, 61, 65, 56, 52, 47, 24]",<,511.0,2024-12-21 17:05:48.901306,6513,8,20,
719,720,1,5,"[52, 44, 54, 57, 39, 51, 92, 59]",<,468.0,2024-12-21 17:05:55.211657,6513,2,20,
720,721,1,6,"[32, 45, 67, 34, 25, 39, 60, 66]",<,565.0,2024-12-21 17:06:01.613699,6513,1,20,
721,722,1,7,"[70, 57, 53, 27, 44, 40, 21, 40]",<,513.0,2024-12-21 17:06:07.988813,6513,9,20,
722,723,1,8,"[71, 77, 60, 58, 35, 62, 73, 36]",<,436.0,2024-12-21 17:06:14.202955,6513,3,20,
723,724,1,9,"[67, 44, 20, 69, 50, 53, 39, 42]",<,484.0,2024-12-21 17:06:20.465080,6513,8,20,
724,725,1,10,"[82, 67, 47, 34, 41, 48, 61, 68]",<,507.0,2024-12-21 17:06:26.775512,6513,3,20,
725,726,1,11,"[50, 31, 77, 42, 40, 64, 50, 30]",<,606.0,2024-12-21 17:06:33.158740,6513,9,20,
726,727,1,12,"[82, 54, 44, 74, 38, 75, 56, 49]",<,709.0,2024-12-21 17:06:39.677205,6513,6,20,
727,728,1,13,"[82, 59, 32, 58, 34, 47, 46, 58]",<,552.0,2024-12-21 17:06:46.029134,6513,2,20,
728,729,1,14,"[31, 41, 46, 37, 35, 58, 41, 79]",<,489.0,2024-12-21 17:06:52.307107,6513,0,20,
729,730,1,15,"[36, 74, 36, 23, 36, 26, 47, 50]",<,485.0,2024-12-21 17:06:58.722576,6513,9,20,
730,731,1,16,"[65, 58, 80, 64, 77, 52, 39, 37]",<,476.0,2024-12-21 17:07:04.960727,6513,7,20,
731,732,1,17,"[56, 53, 34, 70, 48, 35, 81, 55]",<,443.0,2024-12-21 17:07:11.160510,6513,4,20,
732,733,1,18,"[58, 63, 46, 36, 38, 37, 34, 80]",<,891.0,2024-12-21 17:07:17.879386,6513,5,20,
733,734,1,19,"[41, 72, 41, 48, 32, 78, 44, 52]",<,380.0,2024-12-21 17:07:23.993092,6513,5,20,
734,735,1,20,"[52, 34, 51, 49, 29, 78, 47, 68]",<,417.0,2024-12-21 17:07:30.214264,6513,3,20,
735,736,1,21,"[43, 31, 58, 29, 38, 73, 48, 64]",<,741.0,2024-12-21 17:07:36.803820,6513,6,20,
736,737,1,22,"[71, 59, 34, 24, 50, 56, 66, 56]",<,565.0,2024-12-21 17:07:43.149866,6513,5,20,
737,738,1,23,"[68, 38, 22, 54, 51, 72, 49, 54]",<,723.0,2024-12-21 17:07:49.670906,6513,9,20,
738,739,1,24,"[65, 38, 51, 69, 48, 46, 88, 67]",<,469.0,2024-12-21 17:07:55.920631,6513,8,20,
739,740,1,25,"[72, 42, 70, 45, 33, 76, 47, 63]",<,489.0,2024-12-21 17:08:02.143885,6513,2,20,
740,741,1,26,"[49, 65, 28, 39, 31, 74, 38, 44]",<,1322.0,2024-12-21 17:08:09.239495,6513,4,20,
741,742,1,27,"[36, 57, 29, 31, 46, 57, 67, 69]",<,1109.0,2024-12-21 17:08:16.102414,6513,2,20,
742,743,1,28,"[40, 78, 56, 38, 38, 40, 53, 25]",<,579.0,2024-12-21 17:08:22.455012,6513,3,20,
743,744,1,29,"[72, 23, 34, 49, 64, 39, 57, 46]",<,500.0,2024-12-21 17:08:28.674081,6513,6,20,
744,745,1,30,"[52, 54, 76, 57, 71, 37, 37, 32]",<,1177.0,2024-12-21 17:08:35.572478,6513,0,20,
745,746,1,2,"[52, 26, 67, 75, 46, 46, 33, 47]",<,565.0,2024-12-21 17:09:15.041170,6767,5,10,
746,747,1,3,"[53, 52, 29, 70, 41, 75, 55, 33]",<,478.0,2024-12-21 17:09:21.492844,6767,6,10,
747,748,1,4,"[60, 49, 86, 46, 40, 58, 35, 42]",<,516.0,2024-12-21 17:09:27.859178,6767,4,10,
748,749,1,5,"[53, 60, 58, 30, 46, 22, 54, 69]",<,405.0,2024-12-21 17:09:34.143665,6767,7,10,
749,750,1,2,"[31, 44, 46, 61, 43, 78, 57, 32]",<,969.0,2024-12-21 17:11:50.838722,5877,5,10,
750,751,1,3,"[33, 69, 53, 56, 24, 44, 66, 63]",<,992.0,2024-12-21 17:11:57.788534,5877,6,10,
751,752,1,4,"[55, 43, 74, 51, 64, 60, 21, 48]",<,769.0,2024-12-21 17:12:04.479812,5877,4,10,
752,753,1,5,"[52, 66, 72, 36, 55, 47, 42, 22]",<,526.0,2024-12-21 17:12:10.941661,5877,7,10,
753,754,1,2,"[62, 87, 56, 31, 58, 51, 55, 72]",<,4698.0,2024-12-21 17:18:04.243352,6645,2,20,
754,755,1,2,"[54, 69, 64, 75, 64, 64, 23, 59]",<,515.0,2024-12-21 17:20:28.484400,1151,4,20,
755,756,1,3,"[53, 35, 45, 26, 41, 52, 63, 77]",<,12866.0,2024-12-21 17:20:45.574985,1151,1,20,
756,757,1,4,"[67, 32, 25, 45, 55, 63, 28, 37]",<,767.0,2024-12-21 17:20:50.638539,1151,0,20,
757,758,1,5,"[64, 60, 32, 41, 30, 32, 18, 51]",<,2408.0,2024-12-21 17:20:57.087592,1151,2,20,
758,759,1,6,"[54, 28, 43, 25, 36, 49, 68, 65]",<,1350.0,2024-12-21 17:21:03.098103,1151,1,20,
759,760,1,7,"[48, 41, 36, 47, 78, 43, 22, 37]",<,515.0,2024-12-21 17:21:08.126907,1151,4,20,
760,761,1,8,"[42, 66, 47, 64, 63, 54, 19, 37]",<,520.0,2024-12-21 17:21:12.792275,1151,6,20,
761,762,1,9,"[52, 61, 28, 36, 82, 51, 55, 51]",<,466.0,2024-12-21 17:21:17.287978,1151,3,20,
762,763,1,10,"[55, 64, 31, 53, 53, 48, 63, 17]",<,471.0,2024-12-21 17:21:21.730749,1151,9,20,
763,764,1,11,"[54, 56, 67, 45, 56, 36, 88, 70]",<,2084.0,2024-12-21 17:21:27.894403,1151,1,20,
764,765,1,12,"[33, 23, 47, 53, 32, 35, 58, 71]",<,530.0,2024-12-21 17:21:32.440527,1151,3,20,
765,766,1,13,"[28, 52, 45, 46, 31, 61, 43, 78]",<,1021.0,2024-12-21 17:21:37.454551,1151,7,20,
766,767,1,14,"[48, 72, 50, 80, 34, 37, 49, 62]",<,10162.0,2024-12-21 17:21:51.625724,1151,1,20,
767,768,1,15,"[46, 66, 33, 43, 27, 22, 52, 63]",<,478.0,2024-12-21 17:21:56.054616,1151,3,20,
768,769,1,16,"[42, 67, 57, 50, 37, 26, 34, 71]",<,460.0,2024-12-21 17:22:00.492721,1151,3,20,
769,770,1,17,"[21, 42, 53, 52, 53, 36, 77, 50]",<,483.0,2024-12-21 17:22:04.957971,1151,1,20,
770,771,1,18,"[38, 49, 28, 69, 52, 16, 51, 49]",<,723.0,2024-12-21 17:22:09.684375,1151,7,20,
771,772,1,19,"[52, 65, 34, 47, 64, 41, 45, 84]",<,508.0,2024-12-21 17:22:14.193812,1151,4,20,
772,773,1,20,"[63, 25, 50, 41, 70, 37, 66, 40]",<,1030.0,2024-12-21 17:22:19.196577,1151,2,20,
773,774,1,21,"[40, 13, 68, 50, 55, 55, 47, 40]",<,1018.0,2024-12-21 17:22:24.519707,1151,9,20,
774,775,1,22,"[88, 45, 68, 38, 58, 65, 64, 46]",<,487.0,2024-12-21 17:22:29.385924,1151,7,20,
775,776,1,23,"[61, 66, 55, 69, 20, 65, 44, 52]",<,404.0,2024-12-21 17:22:33.733039,1151,5,20,
776,777,1,24,"[58, 56, 54, 60, 50, 13, 65, 52]",<,435.0,2024-12-21 17:22:38.225612,1151,8,20,
777,778,1,25,"[56, 47, 68, 38, 40, 87, 58, 54]",<,417.0,2024-12-21 17:22:42.643282,1151,2,20,
778,779,1,26,"[74, 56, 42, 53, 35, 30, 53, 25]",<,468.0,2024-12-21 17:22:47.107244,1151,9,20,
779,780,1,27,"[64, 63, 79, 28, 56, 70, 68, 44]",<,391.0,2024-12-21 17:22:51.571949,1151,0,20,
780,781,1,28,"[20, 54, 34, 38, 40, 32, 36, 74]",<,502.0,2024-12-21 17:22:56.083224,1151,1,20,
781,782,1,29,"[50, 27, 29, 36, 49, 48, 77, 36]",<,496.0,2024-12-21 17:23:00.604732,1151,4,20,
782,783,1,30,"[75, 20, 59, 56, 45, 40, 42, 55]",<,1102.0,2024-12-21 17:23:05.659877,1151,0,20,
783,784,1,31,"[37, 39, 51, 25, 37, 76, 36, 27]",<,1628.0,2024-12-21 17:23:11.375825,1151,1,20,
784,785,1,32,"[39, 48, 46, 38, 44, 75, 45, 17]",<,1860.0,2024-12-21 17:23:17.193499,1151,9,20,
785,786,1,33,"[50, 62, 71, 75, 82, 35, 44, 53]",<,465.0,2024-12-21 17:23:22.432223,1151,7,20,
786,787,1,34,"[70, 51, 43, 72, 58, 38, 30, 70]",<,469.0,2024-12-21 17:23:26.930880,1151,9,20,
787,788,1,35,"[33, 48, 74, 85, 54, 51, 64, 63]",<,440.0,2024-12-21 17:23:31.367440,1151,1,20,
788,789,1,36,"[56, 29, 42, 33, 43, 77, 29, 43]",<,447.0,2024-12-21 17:23:35.951391,1151,1,20,
789,790,1,37,"[78, 52, 37, 30, 35, 39, 31, 50]",<,405.0,2024-12-21 17:23:40.331052,1151,1,20,
790,791,1,38,"[39, 25, 62, 62, 27, 30, 61, 46]",<,395.0,2024-12-21 17:23:44.719245,1151,8,20,
791,792,1,39,"[44, 51, 36, 66, 58, 89, 50, 54]",<,404.0,2024-12-21 17:23:49.116289,1151,9,20,
792,793,1,40,"[53, 63, 36, 45, 76, 64, 84, 51]",<,398.0,2024-12-21 17:23:53.527138,1151,1,20,
793,794,1,41,"[57, 41, 61, 50, 15, 45, 26, 57]",<,538.0,2024-12-21 17:23:58.061062,1151,8,20,
794,795,1,42,"[33, 85, 61, 51, 58, 37, 63, 60]",<,478.0,2024-12-21 17:24:02.622945,1151,4,20,
795,796,1,43,"[41, 42, 52, 54, 46, 55, 79, 23]",<,693.0,2024-12-21 17:24:07.324809,1151,1,20,
796,797,1,44,"[36, 40, 36, 37, 43, 45, 83, 32]",<,1145.0,2024-12-21 17:24:12.467059,1151,2,20,
797,798,1,45,"[32, 37, 47, 70, 65, 22, 45, 50]",<,577.0,2024-12-21 17:24:17.005253,1151,0,20,
798,799,1,46,"[60, 19, 47, 50, 42, 33, 19, 58]",<,2316.0,2024-12-21 17:24:23.559738,1151,8,20,
799,800,1,47,"[67, 63, 78, 62, 33, 50, 60, 35]",<,481.0,2024-12-21 17:24:28.066183,1151,1,20,
800,801,1,48,"[20, 54, 57, 31, 45, 50, 66, 29]",<,619.0,2024-12-21 17:24:32.877948,1151,0,20,
801,802,1,49,"[28, 60, 38, 17, 43, 63, 30, 49]",<,2414.0,2024-12-21 17:24:39.790480,1151,5,20,
802,803,1,50,"[22, 46, 77, 57, 54, 62, 40, 50]",<,530.0,2024-12-21 17:24:44.443646,1151,5,20,
803,804,1,51,"[60, 24, 69, 71, 49, 52, 34, 49]",>,576.0,2024-12-21 17:24:51.909377,1151,8,20,
804,805,1,52,"[65, 43, 77, 37, 69, 35, 54, 68]",>,477.0,2024-12-21 17:24:56.836818,1151,8,20,
805,806,1,53,"[37, 53, 80, 70, 62, 36, 44, 66]",>,1176.0,2024-12-21 17:25:02.171805,1151,5,20,
806,807,1,54,"[32, 50, 43, 59, 32, 61, 51, 80]",>,810.0,2024-12-21 17:25:07.086814,1151,6,20,
807,808,1,55,"[33, 36, 51, 76, 73, 59, 48, 40]",>,1247.0,2024-12-21 17:25:12.663525,1151,2,20,
808,809,1,56,"[69, 44, 34, 59, 51, 20, 56, 35]",>,947.0,2024-12-21 17:25:18.460050,1151,1,20,
809,810,1,57,"[39, 22, 50, 30, 53, 32, 56, 70]",>,1051.0,2024-12-21 17:25:23.632899,1151,0,20,
810,811,1,58,"[31, 45, 51, 33, 42, 17, 71, 38]",>,1391.0,2024-12-21 17:25:29.170704,1151,2,20,
811,812,1,59,"[50, 58, 21, 50, 51, 24, 68, 46]",>,342.0,2024-12-21 17:25:33.700137,1151,2,20,
812,813,1,60,"[75, 44, 45, 34, 57, 24, 35, 54]",>,388.0,2024-12-21 17:25:38.137855,1151,7,20,
813,814,1,61,"[83, 63, 52, 34, 45, 57, 36, 62]",>,626.0,2024-12-21 17:25:42.867763,1151,2,20,
814,815,1,62,"[43, 48, 11, 40, 49, 64, 58, 55]",>,434.0,2024-12-21 17:25:47.489340,1151,4,20,
815,816,1,63,"[43, 62, 59, 68, 56, 21, 52, 31]",>,556.0,2024-12-21 17:25:52.168979,1151,1,20,
816,817,1,64,"[47, 57, 21, 35, 67, 26, 56, 43]",>,434.0,2024-12-21 17:25:56.604979,1151,7,20,
817,818,1,65,"[64, 27, 60, 64, 51, 47, 41, 78]",>,465.0,2024-12-21 17:26:01.096547,1151,3,20,
818,819,1,66,"[42, 42, 25, 62, 31, 57, 53, 72]",>,429.0,2024-12-21 17:26:05.799932,1151,8,20,
819,820,1,67,"[60, 50, 66, 69, 50, 54, 75, 24]",>,449.0,2024-12-21 17:26:10.434402,1151,9,20,
820,821,1,68,"[55, 85, 57, 55, 45, 82, 51, 42]",>,430.0,2024-12-21 17:26:15.006980,1151,9,20,
821,822,1,69,"[32, 39, 73, 66, 53, 68, 76, 65]",>,438.0,2024-12-21 17:26:19.554347,1151,3,20,
822,823,1,70,"[73, 38, 45, 23, 55, 52, 63, 35]",>,338.0,2024-12-21 17:26:23.930487,1151,7,20,
823,824,1,71,"[70, 56, 26, 65, 60, 46, 71, 38]",>,975.0,2024-12-21 17:26:29.013724,1151,4,20,
824,825,1,72,"[47, 23, 54, 64, 61, 66, 29, 48]",>,850.0,2024-12-21 17:26:33.932181,1151,9,20,
825,826,1,73,"[50, 56, 85, 40, 63, 80, 52, 46]",>,726.0,2024-12-21 17:26:38.625188,1151,4,20,
826,827,1,74,"[68, 35, 50, 63, 64, 53, 34, 25]",>,377.0,2024-12-21 17:26:43.099726,1151,2,20,
827,828,1,75,"[66, 34, 71, 54, 33, 37, 44, 29]",>,427.0,2024-12-21 17:26:47.571367,1151,5,20,
828,829,1,76,"[49, 51, 54, 66, 22, 75, 39, 52]",>,530.0,2024-12-21 17:26:52.210553,1151,4,20,
829,830,1,77,"[61, 33, 61, 49, 55, 34, 27, 72]",>,1368.0,2024-12-21 17:26:57.567242,1151,1,20,
830,831,1,78,"[61, 35, 35, 56, 16, 50, 37, 62]",>,462.0,2024-12-21 17:27:03.691255,1151,0,20,
831,832,1,79,"[34, 31, 17, 45, 67, 31, 45, 58]",>,512.0,2024-12-21 17:27:08.228560,1151,5,20,
832,833,1,80,"[58, 51, 51, 36, 66, 77, 39, 30]",>,847.0,2024-12-21 17:27:13.556104,1151,5,20,
833,834,1,81,"[71, 38, 42, 45, 56, 74, 27, 55]",>,5660.0,2024-12-21 17:27:53.393502,1151,2,20,
834,835,1,82,"[41, 60, 63, 54, 15, 58, 39, 38]",>,2880.0,2024-12-21 17:28:01.105190,1151,5,20,
835,836,1,83,"[51, 75, 39, 59, 50, 68, 27, 39]",>,1070.0,2024-12-21 17:28:06.555457,1151,2,20,
836,837,1,84,"[66, 68, 41, 51, 31, 45, 46, 20]",>,544.0,2024-12-21 17:28:11.370121,1151,9,20,
837,838,1,85,"[59, 63, 76, 61, 77, 61, 48, 27]",>,627.0,2024-12-21 17:28:16.171059,1151,8,20,
838,839,1,86,"[68, 63, 57, 48, 84, 32, 41, 55]",>,742.0,2024-12-21 17:28:21.483755,1151,0,20,
839,840,1,87,"[47, 47, 37, 42, 58, 43, 4, 50]",>,950.0,2024-12-21 17:28:26.649312,1151,9,20,
840,841,1,88,"[67, 87, 61, 51, 32, 57, 51, 66]",>,441.0,2024-12-21 17:28:31.345282,1151,9,20,
841,842,1,89,"[78, 61, 51, 49, 39, 85, 46, 63]",>,723.0,2024-12-21 17:28:39.929897,1151,4,20,
842,843,1,90,"[57, 55, 21, 61, 54, 70, 33, 41]",>,430.0,2024-12-21 17:28:44.558451,1151,2,20,
843,844,1,91,"[53, 43, 60, 67, 18, 45, 30, 52]",>,481.0,2024-12-21 17:28:49.257938,1151,6,20,
844,845,1,92,"[65, 66, 50, 48, 50, 17, 56, 64]",>,407.0,2024-12-21 17:28:53.891590,1151,9,20,
845,846,1,93,"[79, 78, 65, 58, 33, 63, 43, 53]",>,585.0,2024-12-21 17:28:58.582517,1151,0,20,
846,847,1,94,"[44, 40, 28, 41, 23, 39, 77, 36]",>,454.0,2024-12-21 17:29:03.221271,1151,1,20,
847,848,1,95,"[40, 54, 48, 22, 54, 22, 69, 43]",>,431.0,2024-12-21 17:29:07.782152,1151,3,20,
848,849,1,96,"[70, 54, 46, 49, 54, 56, 15, 40]",>,504.0,2024-12-21 17:29:12.482806,1151,3,20,
849,850,1,97,"[40, 69, 66, 47, 52, 56, 29, 25]",>,430.0,2024-12-21 17:29:17.156139,1151,5,20,
850,851,1,98,"[63, 31, 72, 46, 71, 36, 39, 50]",>,1281.0,2024-12-21 17:29:22.635970,1151,8,20,
851,852,1,99,"[40, 54, 62, 64, 76, 28, 53, 71]",<,448.0,2024-12-21 17:29:27.508908,1151,7,20,
852,853,1,100,"[55, 73, 43, 61, 56, 28, 75, 41]",<,506.0,2024-12-21 17:29:32.400832,1151,2,20,
853,854,1,101,"[45, 38, 53, 68, 68, 37, 36, 23]",<,269.0,2024-12-21 17:29:50.480168,1151,4,20,
854,855,1,2,"[43, 37, 48, 48, 41, 60, 5, 46]",<,573.0,2024-12-21 17:33:12.074696,7810,6,20,
855,856,1,3,"[72, 41, 53, 74, 27, 48, 42, 59]",<,424.0,2024-12-21 17:33:16.708635,7810,3,20,
856,857,1,4,"[47, 80, 32, 53, 50, 54, 37, 31]",<,448.0,2024-12-21 17:33:21.340106,7810,7,20,
857,858,1,5,"[64, 70, 51, 67, 35, 25, 62, 58]",<,416.0,2024-12-21 17:33:25.997796,7810,2,20,
858,859,1,6,"[53, 49, 33, 73, 32, 60, 25, 43]",>,464.0,2024-12-21 17:33:32.358692,7810,9,20,
859,860,1,7,"[49, 53, 49, 71, 73, 32, 64, 81]",>,456.0,2024-12-21 17:33:37.080106,7810,7,20,
860,861,1,8,"[63, 77, 35, 62, 27, 52, 61, 55]",>,442.0,2024-12-21 17:33:41.772291,7810,5,20,
861,862,1,9,"[74, 37, 60, 38, 27, 61, 62, 49]",>,474.0,2024-12-21 17:33:46.722644,7810,5,20,
862,863,1,10,"[28, 68, 69, 39, 33, 53, 59, 59]",>,1096.0,2024-12-21 17:33:52.065935,7810,7,20,
863,864,1,2,"[58, 61, 32, 48, 34, 62, 81, 56]",<,607.0,2024-12-21 17:40:49.476485,646,8,20,
864,865,1,3,"[84, 61, 58, 69, 31, 48, 54, 43]",<,589.0,2024-12-21 17:40:56.659908,646,2,20,
865,866,1,4,"[66, 41, 33, 48, 24, 64, 32, 60]",>,746.0,2024-12-21 17:41:04.970068,646,5,20,
866,867,1,5,"[31, 25, 55, 68, 43, 63, 58, 65]",>,513.0,2024-12-21 17:41:11.417842,646,9,20,
867,868,1,6,"[56, 72, 64, 67, 23, 70, 67, 53]",>,478.0,2024-12-21 17:41:19.491902,646,5,20,
868,869,1,7,"[28, 77, 56, 44, 70, 50, 41, 42]",>,576.0,2024-12-21 17:41:26.029221,646,0,20,
869,870,1,8,"[36, 67, 46, 36, 19, 23, 57, 44]",>,453.0,2024-12-21 17:41:32.490351,646,3,20,
870,871,1,9,"[45, 37, 21, 42, 47, 60, 73, 59]",>,2448.0,2024-12-21 17:41:41.032421,646,4,20,
871,872,1,10,"[49, 57, 59, 46, 18, 38, 53, 72]",>,497.0,2024-12-21 17:41:47.599508,646,6,20,
872,873,1,11,"[55, 71, 40, 54, 26, 46, 76, 48]",<,526.0,2024-12-21 17:41:55.718578,646,6,20,
873,874,1,12,"[50, 41, 48, 38, 57, 36, 85, 61]",>,466.0,2024-12-21 17:42:02.110639,646,3,20,
874,875,1,13,"[49, 54, 45, 12, 62, 50, 64, 48]",<,683.0,2024-12-21 17:42:08.843784,646,0,20,
875,876,1,14,"[42, 23, 25, 24, 56, 46, 44, 68]",<,568.0,2024-12-21 17:42:15.471463,646,4,20,
876,877,1,15,"[52, 71, 65, 45, 34, 31, 63, 31]",<,2865.0,2024-12-21 17:42:24.354764,646,0,20,
877,878,1,16,"[36, 62, 26, 31, 64, 25, 31, 53]",>,421.0,2024-12-21 17:42:32.039165,646,8,20,
878,879,1,17,"[46, 62, 76, 77, 50, 43, 61, 33]",<,741.0,2024-12-21 17:42:38.714803,646,5,20,
879,880,1,18,"[54, 55, 21, 45, 57, 50, 46, 80]",>,469.0,2024-12-21 17:42:45.174449,646,9,20,
880,881,1,19,"[46, 45, 54, 44, 81, 50, 79, 73]",>,444.0,2024-12-21 17:42:51.584042,646,8,20,
881,882,1,20,"[49, 22, 50, 74, 68, 66, 56, 63]",<,449.0,2024-12-21 17:42:57.914547,646,7,20,
882,883,1,21,"[40, 50, 63, 56, 51, 77, 69, 26]",<,648.0,2024-12-21 17:43:06.599778,646,5,20,
883,884,1,2,"[56, 78, 61, 70, 37, 29, 60, 57]",<,806.0,2024-12-21 17:45:56.653586,2635,2,20,
884,885,1,2,"[27, 34, 44, 80, 56, 54, 45, 52]",<,1190.0,2024-12-21 17:46:53.341371,6983,5,10,
885,886,1,2,"[53, 44, 30, 65, 33, 55, 75, 37]",>,761.0,2024-12-21 17:48:07.745018,171,5,10,
886,887,1,2,"[30, 54, 23, 45, 69, 66, 56, 49]",<,744.0,2024-12-21 17:48:53.996454,5311,5,10,
887,888,1,3,"[49, 61, 14, 61, 51, 65, 51, 56]",<,677.0,2024-12-21 17:49:04.172894,5311,6,10,
888,889,1,4,"[51, 37, 35, 55, 81, 69, 43, 45]",<,542.0,2024-12-21 17:49:11.701552,5311,4,10,
889,890,1,2,"[45, 34, 74, 44, 49, 71, 53, 78]",>,1106.0,2024-12-21 17:50:08.295520,6723,5,20,
890,891,1,3,"[27, 50, 36, 66, 39, 70, 68, 52]",<,921.0,2024-12-21 17:50:17.600225,6723,0,20,
891,892,1,4,"[55, 58, 26, 57, 48, 23, 42, 19]",<,694.0,2024-12-21 17:50:24.945721,6723,8,20,
892,893,1,2,"[79, 65, 25, 59, 58, 63, 53, 70]",<,424.0,2024-12-21 17:51:01.306494,6723,4,20,
893,894,1,2,"[45, 32, 60, 38, 57, 27, 74, 59]",>,943.0,2024-12-21 17:51:21.029190,6723,6,20,
894,895,1,3,"[62, 36, 47, 43, 60, 68, 27, 73]",>,1065.0,2024-12-21 17:51:29.117498,6723,9,20,
895,896,1,4,"[79, 60, 73, 75, 43, 35, 48, 59]",<,238540.0,2024-12-21 17:55:40.113426,6723,7,20,
896,897,1,2,"[30, 42, 27, 65, 69, 43, 59, 57]",<,951.0,2024-12-21 17:57:50.082970,2881,5,10,
897,898,1,2,"[68, 73, 35, 51, 24, 57, 54, 54]",<,779.0,2024-12-21 17:59:00.623139,2791,2,20,
898,899,1,2,"[65, 40, 33, 80, 39, 37, 46, 52]",<,838.0,2024-12-21 17:59:30.915384,2030,5,10,
899,900,1,2,"[62, 53, 62, 31, 70, 33, 37, 68]",<,1004.0,2024-12-21 17:59:47.253376,2030,5,20,
900,901,1,2,"[57, 39, 50, 51, 45, 9, 26, 51]",<,1043.0,2024-12-21 18:00:02.466951,2030,6,20,
901,902,1,2,"[70, 52, 56, 29, 64, 62, 49, 26]",<,421.0,2024-12-21 18:00:38.498339,2030,4,20,
902,903,1,2,"[65, 32, 33, 58, 24, 59, 38, 59]",<,672.0,2024-12-21 18:05:58.201587,8805,2,20,
903,904,1,3,"[70, 40, 28, 62, 39, 32, 35, 62]",<,1016.0,2024-12-21 18:06:09.665116,8805,4,20,
904,905,1,4,"[43, 56, 29, 61, 55, 41, 32, 75]",<,1671.0,2024-12-21 18:06:20.317755,8805,2,20,
905,906,1,5,"[69, 50, 17, 42, 43, 42, 65, 40]",<,753.0,2024-12-21 18:06:27.116544,8805,4,20,
906,907,1,6,"[78, 51, 42, 27, 63, 53, 42, 36]",<,674.0,2024-12-21 18:06:35.136908,8805,8,20,
907,908,1,7,"[82, 31, 59, 62, 35, 55, 62, 62]",<,799.0,2024-12-21 18:06:41.892990,8805,4,20,
908,909,1,8,"[66, 34, 52, 57, 25, 38, 49, 71]",<,1595.0,2024-12-21 18:06:50.375669,8805,4,20,
909,910,1,9,"[40, 65, 32, 38, 63, 69, 55, 30]",<,632.0,2024-12-21 18:06:57.144460,8805,7,20,
910,911,1,2,"[71, 64, 37, 35, 44, 59, 77, 45]",<,896.0,2024-12-21 18:07:53.055231,8805,7,20,
911,912,1,2,"[65, 77, 33, 53, 46, 33, 50, 35]",<,725.0,2024-12-21 18:08:53.597537,2797,5,10,
912,913,1,3,"[69, 67, 67, 23, 50, 50, 43, 39]",<,627.0,2024-12-21 18:09:39.909034,2797,6,10,
913,914,1,2,"[46, 79, 68, 60, 40, 54, 36, 33]",<,1253.0,2024-12-21 18:10:39.381189,2908,9,20,
914,915,1,2,"[60, 32, 63, 66, 46, 44, 59, 22]",<,1205.0,2024-12-21 18:12:57.018025,6839,5,10,
915,916,1,3,"[72, 35, 61, 47, 67, 24, 52, 50]",<,523.0,2024-12-21 18:13:03.758964,6839,6,10,
916,917,1,4,"[50, 36, 48, 73, 76, 32, 56, 45]",<,442.0,2024-12-21 18:13:10.347330,6839,4,10,
917,918,1,5,"[33, 51, 33, 66, 58, 62, 26, 63]",<,473.0,2024-12-21 18:13:16.795303,6839,7,10,
918,919,1,6,"[53, 39, 41, 48, 56, 41, 69, 85]",>,475.0,2024-12-21 18:13:25.684651,6839,3,10,
919,920,1,7,"[62, 51, 31, 70, 49, 22, 40, 59]",<,408.0,2024-12-21 18:13:32.383824,6839,5,10,
920,921,1,8,"[55, 78, 36, 45, 65, 59, 34, 36]",<,400.0,2024-12-21 18:13:39.032837,6839,7,10,
921,922,1,9,"[68, 66, 72, 32, 51, 64, 32, 47]",>,414.0,2024-12-21 18:13:45.436033,6839,3,10,
922,923,1,10,"[47, 21, 44, 37, 51, 55, 78, 51]",>,416.0,2024-12-21 18:13:51.770877,6839,4,10,
923,924,1,11,"[59, 35, 22, 62, 69, 36, 54, 55]",>,1665.0,2024-12-21 18:14:02.330751,6839,2,10,
924,925,1,12,"[36, 40, 44, 50, 68, 34, 25, 71]",>,878.0,2024-12-21 18:14:09.234598,6839,5,10,
925,926,1,13,"[39, 39, 35, 69, 67, 63, 64, 32]",<,589.0,2024-12-21 18:14:15.700741,6839,8,10,
926,927,1,14,"[44, 62, 34, 88, 61, 47, 56, 56]",<,446.0,2024-12-21 18:14:22.095443,6839,6,10,
927,928,1,15,"[53, 34, 60, 43, 77, 58, 28, 63]",<,542.0,2024-12-21 18:14:29.145950,6839,4,10,
928,929,1,16,"[49, 42, 40, 41, 49, 42, 88, 41]",>,767.0,2024-12-21 18:14:37.094557,6839,7,10,
929,930,1,17,"[46, 50, 56, 39, 69, 73, 71, 28]",>,669.0,2024-12-21 18:14:43.674462,6839,2,10,
930,931,1,18,"[37, 21, 41, 39, 67, 40, 53, 70]",>,525.0,2024-12-21 18:14:50.181661,6839,1,10,
931,932,1,19,"[57, 23, 21, 52, 58, 37, 62, 42]",>,1641.0,2024-12-21 18:14:57.729582,6839,3,10,
932,933,1,20,"[63, 30, 54, 58, 26, 57, 32, 64]",>,1345.0,2024-12-21 18:15:05.129131,6839,3,10,
933,934,1,21,"[82, 44, 34, 43, 58, 45, 48, 30]",<,558.0,2024-12-21 18:15:13.101968,6839,5,10,
934,935,1,2,"[63, 31, 66, 46, 37, 30, 71, 48]",<,1174.0,2024-12-26 14:12:07.974718,5129,5,10,
935,936,1,3,"[47, 65, 83, 45, 47, 33, 36, 52]",<,587.0,2024-12-26 14:12:15.174335,5129,6,10,
936,937,1,4,"[87, 58, 41, 51, 45, 32, 48, 54]",<,563.0,2024-12-26 14:12:21.800277,5129,4,10,
937,938,1,2,"[55, 37, 32, 46, 80, 32, 54, 56]",<,854.0,2024-12-26 14:13:58.686758,5129,5,10,
938,939,1,2,"[92, 56, 47, 45, 53, 47, 51, 41]",<,4303.0,2024-12-26 14:14:29.594877,5129,4,20,
939,940,1,3,"[58, 37, 56, 69, 40, 20, 64, 48]",<,1253.0,2024-12-26 14:14:37.757780,5129,2,20,
940,941,1,4,"[60, 36, 61, 58, 25, 54, 22, 52]",<,566.0,2024-12-26 14:14:44.268535,5129,6,20,
941,942,1,5,"[73, 56, 76, 34, 48, 53, 35, 41]",>,429.0,2024-12-26 14:14:50.797546,5129,5,20,
942,943,1,6,"[83, 50, 63, 36, 49, 49, 48, 30]",<,704.0,2024-12-26 14:15:01.113174,5129,9,20,
943,944,1,2,"[62, 42, 45, 67, 16, 55, 59, 46]",<,759.0,2024-12-26 14:16:11.379020,5129,5,10,
944,945,1,3,"[55, 36, 45, 30, 75, 42, 54, 71]",>,3749.0,2024-12-26 14:16:23.454649,5129,6,10,
945,946,1,4,"[60, 36, 30, 39, 73, 69, 61, 48]",<,666.0,2024-12-26 14:16:38.976104,5129,3,10,
946,947,1,5,"[39, 66, 41, 58, 47, 22, 41, 70]",>,407.0,2024-12-26 14:16:47.201952,5129,5,10,
947,948,1,2,"[37, 57, 49, 77, 50, 61, 54, 87]",<,969.0,2024-12-26 14:17:52.978014,1263,6,20,
948,949,1,2,"[78, 54, 63, 47, 55, 24, 46, 65]",<,499.0,2024-12-26 14:46:22.524620,6330,2,20,
949,950,1,3,"[53, 39, 57, 65, 49, 51, 12, 42]",>,1052.0,2024-12-26 14:46:32.138547,6330,6,20,
950,951,1,2,"[57, 43, 58, 52, 70, 16, 42, 54]",>,1323.0,2024-12-26 21:13:41.589636,8451,5,10,
951,952,1,3,"[22, 49, 56, 69, 72, 46, 40, 54]",<,601.0,2024-12-26 21:13:48.499293,8451,4,10,
952,953,1,4,"[31, 37, 69, 56, 67, 58, 45, 29]",>,665.0,2024-12-26 21:13:55.555757,8451,3,10,
953,954,1,2,"[54, 64, 71, 45, 26, 49, 64, 75]",<,1411.0,2024-12-26 21:35:44.579716,79,8,20,
954,955,1,3,"[46, 78, 53, 62, 78, 55, 36, 40]",>,566.0,2024-12-26 21:35:51.500403,79,7,20,
955,956,1,4,"[28, 48, 64, 43, 57, 47, 64, 81]",<,704.0,2024-12-26 21:36:02.005036,79,4,20,
956,957,1,5,"[60, 35, 61, 50, 36, 22, 66, 62]",>,522.0,2024-12-26 21:36:08.495764,79,0,20,
957,958,1,2,"[43, 59, 59, 23, 46, 77, 47, 38]",>,450.0,2024-12-26 21:45:47.112088,3779,5,10,
958,959,1,2,"[80, 38, 49, 42, 66, 45, 39, 33]",<,627.0,2024-12-27 16:47:27.011196,6112,2,20,
959,960,1,3,"[54, 36, 37, 17, 62, 42, 62, 58]",>,8446.0,2024-12-27 16:47:42.586219,6112,0,20,
960,961,1,4,"[12, 44, 46, 62, 47, 57, 32, 28]",>,3262933.0,2024-12-27 17:42:11.623174,6112,4,20,
961,962,1,2,"[40, 47, 79, 41, 62, 40, 56, 27]",<,738.0,2024-12-27 17:43:16.835127,6112,2,10,
962,963,1,2,"[24, 61, 43, 40, 67, 58, 65, 34]",<,3961.0,2024-12-27 18:20:06.211004,4889,2,10,
963,964,1,3,"[37, 39, 24, 65, 49, 53, 32, 69]",>,517.0,2024-12-27 18:20:18.134945,4889,1,10,
964,965,1,3,"[25, 34, 58, 50, 63, 24, 61, 53]",<,2242863.0,2024-12-27 18:20:57.146844,6112,3,10,
965,966,1,4,"[60, 34, 44, 36, 42, 76, 30, 62]",>,482.0,2024-12-27 18:21:05.311159,6112,2,10,
966,967,1,2,"[38, 34, 52, 47, 45, 54, 37, 85]",<,842.0,2024-12-27 18:39:48.545615,1477,2,10,
967,968,1,3,"[29, 71, 32, 61, 61, 34, 43, 37]",>,426.0,2024-12-27 18:40:06.408316,1477,1,10,
968,969,1,4,"[70, 33, 54, 61, 37, 26, 29, 42]",>,649.0,2024-12-27 18:41:07.932187,1477,2,10,
969,970,1,5,"[65, 58, 24, 41, 69, 33, 41, 37]",<,453.0,2024-12-27 18:41:19.334456,1477,3,10,
970,971,1,2,"[59, 44, 17, 66, 39, 51, 51, 65]",<,680.0,2024-12-27 19:09:56.235175,1325,2,10,
971,972,1,3,"[71, 68, 32, 49, 45, 35, 40, 28]",>,961.0,2024-12-27 19:10:07.658053,1325,1,10,
972,973,1,4,"[39, 57, 64, 46, 14, 48, 30, 54]",>,42056.0,2024-12-27 19:11:00.334764,1325,2,10,
973,974,1,2,"[44, 38, 55, 45, 78, 63, 42, 27]",>,729.0,2024-12-27 19:11:25.736459,604,2,10,
974,975,1,3,"[66, 61, 54, 60, 31, 27, 37, 32]",>,495.0,2024-12-27 19:11:36.235090,604,1,10,
975,976,1,4,"[64, 10, 46, 56, 38, 44, 42, 52]",>,499.0,2024-12-27 19:11:44.374377,604,2,10,
976,977,1,5,"[56, 15, 55, 64, 30, 47, 49, 52]",>,440.0,2024-12-27 19:11:54.942620,604,1,10,
977,978,1,6,"[25, 44, 64, 63, 48, 44, 18, 46]",>,826.0,2024-12-27 19:12:04.173440,604,2,10,
978,979,1,7,"[59, 34, 37, 67, 46, 40, 63, 22]",>,576.0,2024-12-27 19:12:12.452205,604,1,10,
979,980,1,8,"[37, 39, 69, 13, 51, 53, 49, 41]",>,1979.0,2024-12-27 19:12:22.478102,604,2,10,
980,981,1,9,"[60, 58, 54, 26, 33, 41, 68, 28]",>,2751.0,2024-12-27 19:12:40.024981,604,1,10,
981,982,1,2,"[26, 47, 20, 46, 48, 50, 63, 68]",<,1330.0,2024-12-27 21:23:47.725002,4551,1,20,
982,983,1,2,"[74, 57, 67, 28, 33, 48, 38, 47]",>,689.0,2024-12-27 21:24:06.914417,8025,5,10,
983,984,1,3,"[82, 43, 37, 33, 52, 46, 49, 66]",>,820.0,2024-12-27 21:24:17.257127,8025,5,10,
984,985,1,4,"[58, 32, 68, 62, 31, 34, 55, 68]",>,891.0,2024-12-27 21:24:29.940628,8025,6,10,
985,986,1,5,"[59, 25, 30, 61, 70, 62, 52, 57]",>,477.0,2024-12-27 21:24:44.263338,8025,3,10,
986,987,1,6,"[35, 19, 41, 48, 69, 60, 53, 59]",>,388.0,2024-12-27 21:24:55.853681,8025,5,10,
987,988,1,2,"[36, 39, 35, 31, 68, 66, 49, 68]",>,556.0,2024-12-27 21:39:24.911348,2854,5,10,
988,989,1,3,"[39, 54, 20, 55, 63, 70, 45, 62]",>,568.0,2024-12-27 21:39:32.075765,2854,5,10,
989,990,1,4,"[54, 18, 64, 67, 53, 37, 57, 58]",>,641.0,2024-12-27 21:39:39.259462,2854,6,10,
990,991,1,5,"[59, 21, 51, 43, 50, 75, 63, 54]",>,616.0,2024-12-27 21:39:46.351842,2854,3,10,
991,992,1,6,"[76, 43, 30, 48, 33, 58, 61, 35]",>,609.0,2024-12-27 21:39:55.665274,2854,5,10,
992,993,1,7,"[55, 37, 51, 41, 52, 27, 73, 72]",>,608.0,2024-12-27 21:40:02.738603,2854,5,10,
993,994,1,8,"[39, 67, 53, 47, 54, 77, 46, 25]",>,691.0,2024-12-27 21:40:09.947644,2854,4,10,
994,995,1,2,"[54, 48, 73, 32, 53, 62, 22, 48]",>,1069.0,2024-12-27 21:42:52.962498,2854,5,10,
995,996,1,3,"[40, 51, 29, 47, 84, 55, 46, 56]",>,544.0,2024-12-27 21:42:59.627834,2854,3,10,
996,997,1,4,"[51, 64, 53, 33, 67, 43, 19, 54]",>,577.0,2024-12-27 21:43:06.854140,2854,5,10,
997,998,1,5,"[29, 55, 46, 61, 76, 31, 47, 63]",>,609.0,2024-12-27 21:43:13.593409,2854,2,10,
998,999,1,6,"[50, 71, 49, 24, 58, 54, 27, 35]",>,639.0,2024-12-27 21:43:22.581102,2854,4,10,
999,1000,1,7,"[78, 30, 54, 27, 57, 47, 49, 50]",>,674.0,2024-12-27 21:43:29.467758,2854,3,10,
1000,1001,1,8,"[84, 52, 31, 38, 47, 40, 44, 48]",>,534.0,2024-12-27 21:43:36.511375,2854,1,10,
1001,1002,1,2,"[31, 77, 49, 54, 45, 57, 52, 27]",>,14357.0,2024-12-27 21:45:23.016792,8194,5,10,
1002,1003,1,3,"[24, 68, 31, 51, 54, 63, 50, 67]",>,639.0,2024-12-27 21:45:30.235793,8194,3,10,
1003,1004,1,4,"[72, 58, 29, 24, 43, 47, 56, 55]",>,593.0,2024-12-27 21:45:37.994289,8194,5,10,
1004,1005,1,5,"[65, 42, 45, 49, 53, 62, 72, 20]",>,605.0,2024-12-27 21:45:44.706705,8194,2,10,
1005,1006,1,6,"[38, 68, 56, 38, 33, 64, 49, 22]",>,596.0,2024-12-27 21:45:52.045263,8194,4,10,
1006,1007,1,7,"[52, 42, 72, 65, 58, 27, 29, 47]",>,592.0,2024-12-27 21:45:58.868819,8194,3,10,
1007,1008,1,8,"[41, 31, 56, 37, 64, 26, 67, 62]",>,1054.0,2024-12-27 21:46:06.092028,8194,1,10,
1008,1009,1,9,"[47, 42, 59, 58, 26, 52, 14, 54]",>,640.0,2024-12-27 21:46:12.980862,8194,4,10,
1009,1010,1,2,"[69, 54, 35, 29, 42, 59, 54, 74]",>,715.0,2024-12-28 01:40:31.059975,8492,3,20,
1010,1011,1,2,"[46, 27, 67, 70, 39, 59, 53, 31]",>,565.0,2024-12-28 01:40:46.766551,8492,5,10,
1011,1012,1,3,"[51, 20, 51, 37, 59, 58, 69, 63]",>,547.0,2024-12-28 01:40:54.129953,8492,5,10,
1012,1013,1,4,"[58, 47, 51, 34, 81, 57, 28, 52]",>,576.0,2024-12-28 01:41:01.724600,8492,6,10,
1013,1014,1,5,"[72, 33, 38, 40, 46, 51, 75, 61]",>,594.0,2024-12-28 01:41:08.923275,8492,3,10,
1014,1015,1,6,"[70, 43, 27, 45, 63, 46, 28, 62]",>,641.0,2024-12-28 01:41:18.483349,8492,5,10,
1015,1016,1,7,"[61, 50, 66, 56, 23, 36, 71, 45]",>,545.0,2024-12-28 01:41:27.965812,8492,5,10,
1016,1017,1,2,"[73, 64, 27, 36, 35, 58, 56, 43]",>,595.0,2024-12-29 12:12:00.330405,7721,5,10,
1017,1018,1,3,"[70, 57, 44, 30, 33, 61, 42, 71]",>,641.0,2024-12-29 12:12:09.173445,7721,3,10,
1018,1019,1,4,"[70, 43, 58, 47, 52, 33, 20, 61]",>,690.0,2024-12-29 12:12:18.132395,7721,5,10,
1019,1020,1,2,"[42, 58, 19, 59, 50, 59, 68, 37]",>,2376.0,2024-12-29 12:14:40.604530,7838,5,10,
1020,1021,1,3,"[37, 53, 55, 58, 71, 29, 34, 71]",>,567.0,2024-12-29 12:14:47.746466,7838,3,10,
1021,1022,1,4,"[64, 30, 46, 77, 33, 53, 42, 39]",>,482.0,2024-12-29 12:14:54.673037,7838,5,10,
1022,1023,1,2,"[43, 52, 36, 66, 42, 82, 56, 71]",>,1706.0,2024-12-29 12:14:57.826032,1030,3,20,
1023,1024,1,5,"[43, 43, 58, 58, 82, 50, 27, 47]",>,516.0,2024-12-29 12:15:01.675181,7838,2,10,
1024,1025,1,3,"[47, 29, 36, 59, 60, 46, 32, 75]",>,1168.0,2024-12-29 12:15:06.206432,1030,9,20,
1025,1026,1,6,"[38, 54, 65, 43, 30, 20, 56, 62]",>,531.0,2024-12-29 12:15:08.749352,7838,4,10,
1026,1027,1,4,"[56, 52, 82, 30, 55, 70, 54, 73]",>,757.0,2024-12-29 12:15:12.789482,1030,1,20,
1027,1028,1,7,"[34, 49, 52, 63, 80, 32, 40, 42]",>,498.0,2024-12-29 12:15:15.705835,7838,3,10,
1028,1029,1,5,"[46, 56, 17, 63, 61, 45, 30, 34]",>,562.0,2024-12-29 12:15:20.350325,1030,0,20,
1029,1030,1,8,"[34, 61, 57, 54, 53, 67, 18, 40]",>,486.0,2024-12-29 12:15:22.568156,7838,1,10,
1030,1031,1,6,"[41, 61, 44, 32, 12, 35, 39, 64]",>,536.0,2024-12-29 12:15:27.730544,1030,8,20,
1031,1032,1,7,"[60, 47, 84, 75, 46, 48, 49, 39]",>,542.0,2024-12-29 12:15:34.747248,1030,8,20,
1032,1033,1,8,"[71, 27, 67, 49, 74, 41, 61, 58]",>,600.0,2024-12-29 12:15:42.133943,1030,2,20,
1033,1034,1,2,"[42, 71, 62, 47, 80, 43, 32, 55]",>,645.0,2024-12-29 12:15:59.021387,9951,1,20,
1034,1035,1,3,"[54, 43, 34, 55, 38, 66, 49, 13]",>,1055.0,2024-12-29 12:16:06.731295,9951,3,20,
1035,1036,1,2,"[57, 57, 40, 78, 28, 50, 49, 33]",>,1957.0,2024-12-29 16:12:55.746081,5552,5,10,
1036,1037,1,3,"[56, 65, 25, 63, 68, 34, 58, 39]",>,1564.0,2024-12-29 16:13:08.016252,5552,3,10,
1037,1038,1,4,"[45, 45, 59, 55, 49, 25, 75, 31]",>,1444.0,2024-12-29 16:13:16.434973,5552,5,10,
1038,1039,1,2,"[38, 66, 61, 45, 40, 24, 70, 40]",<,2932.0,2024-12-29 17:07:03.797782,2239,0,20,
1039,1040,1,3,"[32, 59, 11, 45, 31, 45, 58, 47]",>,9405.0,2024-12-29 17:07:21.443174,2239,3,20,
1040,1041,1,4,"[36, 35, 73, 30, 42, 70, 52, 46]",>,551.0,2024-12-29 17:07:28.757268,2239,5,20,
1041,1042,1,5,"[57, 30, 45, 31, 64, 67, 43, 71]",>,785.0,2024-12-29 17:07:36.433709,2239,8,20,
1042,1043,1,6,"[62, 49, 32, 63, 45, 46, 70, 81]",>,636.0,2024-12-29 17:07:43.404364,2239,2,20,
1043,1044,1,7,"[58, 56, 61, 23, 26, 33, 61, 50]",<,567.0,2024-12-29 17:07:51.556701,2239,4,20,
1044,1045,1,8,"[30, 48, 38, 62, 48, 45, 81, 40]",<,482.0,2024-12-29 17:07:58.511621,2239,5,20,
